now[ms],AHT_tmp[C],AHT_hum,BMP_temp[C],BMP_pres,gx,gy,gz,ax,ay,az,gtemp,magx,magy,magz,volt
1146,0.00,0.00,0.00,0,1.641,1.656,-0.244,-0.099,-0.135,0.987,41.32,1173.00,685.00,-882.00,3102.0000
1279,0.00,0.00,0.00,0,1.611,1.664,-0.221,-0.097,-0.127,0.994,41.31,1193.00,680.00,-905.00,3101.0000
1411,0.00,0.00,0.00,0,1.611,1.687,-0.237,-0.094,-0.128,0.992,41.31,1176.00,685.00,-882.00,3099.0000
1544,0.00,0.00,0.00,0,1.626,1.679,-0.183,-0.096,-0.133,0.993,41.30,1186.00,680.00,-905.00,3098.0000
1672,0.00,0.00,0.00,0,1.565,1.656,-0.206,-0.098,-0.131,0.991,41.30,1186.00,675.00,-882.00,3098.0000
1709,0.00,0.00,0.00,0,1.649,1.580,-0.237,-0.094,-0.127,0.985,41.31,1191.00,685.00,-895.00,3095.0000
1735,0.00,0.00,0.00,0,1.687,1.634,-0.221,-0.099,-0.135,0.992,41.31,1181.00,687.00,-892.00,3099.0000
1760,0.00,0.00,0.00,0,1.664,1.641,-0.237,-0.100,-0.132,0.997,41.31,1188.00,685.00,-892.00,3102.0000
1786,0.00,0.00,0.00,0,1.634,1.641,-0.237,-0.097,-0.134,0.994,41.32,1183.00,682.00,-895.00,3099.0000
1812,0.00,0.00,0.00,0,1.649,1.565,-0.252,-0.099,-0.130,0.990,41.32,1200.00,680.00,-887.00,3099.0000
1843,0.00,0.00,0.00,0,1.618,1.649,-0.267,-0.094,-0.131,0.990,41.31,1193.00,685.00,-887.00,3102.0000
1868,0.00,0.00,0.00,0,1.634,1.672,-0.237,-0.099,-0.134,0.994,41.31,1188.00,682.00,-910.00,3100.0000
1894,0.00,0.00,0.00,0,1.656,1.649,-0.267,-0.099,-0.128,0.993,41.32,1200.00,672.00,-877.00,3100.0000
1920,0.00,0.00,0.00,0,1.656,1.618,-0.282,-0.096,-0.135,0.994,41.31,1193.00,690.00,-900.00,3098.0000
1946,0.00,0.00,0.00,0,1.603,1.641,-0.260,-0.096,-0.130,0.994,41.30,1193.00,677.00,-897.00,3100.0000
1976,0.00,0.00,0.00,0,1.687,1.611,-0.244,-0.095,-0.130,1.000,41.30,1196.00,672.00,-887.00,3103.0000
2002,0.00,0.00,0.00,0,1.664,1.618,-0.244,-0.094,-0.129,0.987,41.31,1171.00,670.00,-897.00,3102.0000
2028,0.00,0.00,0.00,0,1.649,1.733,-0.229,-0.101,-0.132,0.990,41.31,1198.00,680.00,-880.00,3097.0000
2054,0.00,0.00,0.00,0,1.672,1.656,-0.221,-0.097,-0.133,0.989,41.30,1193.00,685.00,-882.00,3100.0000
2079,0.00,0.00,0.00,0,1.649,1.580,-0.244,-0.097,-0.135,0.992,41.31,1191.00,680.00,-902.00,3098.0000
2110,0.00,0.00,0.00,0,1.626,1.672,-0.252,-0.096,-0.131,0.992,41.32,1181.00,670.00,-895.00,3098.0000
2136,0.00,0.00,0.00,0,1.656,1.672,-0.244,-0.097,-0.132,0.989,41.31,1183.00,677.00,-892.00,3101.0000
2162,0.00,0.00,0.00,0,1.634,1.695,-0.221,-0.098,-0.132,0.986,41.31,1198.00,677.00,-887.00,3099.0000
2188,0.00,0.00,0.00,0,1.679,1.641,-0.221,-0.095,-0.132,0.995,41.31,1186.00,682.00,-875.00,3099.0000
2213,0.00,0.00,0.00,0,1.664,1.679,-0.229,-0.097,-0.131,0.989,41.29,1193.00,662.00,-885.00,3098.0000
2244,0.00,0.00,0.00,0,1.618,1.634,-0.221,-0.095,-0.131,0.988,41.31,1176.00,685.00,-892.00,3098.0000
2270,0.00,0.00,0.00,0,1.618,1.611,-0.214,-0.096,-0.133,0.992,41.31,1188.00,680.00,-892.00,3098.0000
2295,0.00,0.00,0.00,0,1.588,1.573,-0.229,-0.095,-0.137,0.990,41.29,1181.00,656.00,-880.00,3097.0000
2321,0.00,0.00,0.00,0,1.603,1.580,-0.214,-0.093,-0.136,0.990,41.30,1196.00,687.00,-895.00,3099.0000
2347,0.00,0.00,0.00,0,1.641,1.687,-0.237,-0.095,-0.137,0.992,41.31,1183.00,670.00,-897.00,3099.0000
2392,0.00,0.00,0.00,0,1.626,1.656,-0.221,-0.092,-0.129,0.993,41.31,1178.00,665.00,-882.00,3101.0000
2427,0.00,0.00,0.00,0,1.649,1.611,-0.221,-0.095,-0.132,0.993,41.32,1186.00,682.00,-892.00,3100.0000
2453,0.00,0.00,0.00,0,1.649,1.702,-0.237,-0.096,-0.129,0.988,41.31,1191.00,680.00,-882.00,3097.0000
2478,0.00,0.00,0.00,0,1.634,1.672,-0.237,-0.096,-0.132,0.993,41.30,1193.00,685.00,-887.00,3095.0000
2504,0.00,0.00,0.00,0,1.611,1.649,-0.244,-0.093,-0.130,0.992,41.32,1188.00,680.00,-900.00,3095.0000
2535,0.00,0.00,0.00,0,1.679,1.641,-0.260,-0.099,-0.131,0.990,41.30,1196.00,677.00,-885.00,3097.0000
2561,0.00,0.00,0.00,0,1.641,1.695,-0.214,-0.099,-0.129,0.990,41.33,1193.00,682.00,-890.00,3095.0000
2597,0.00,0.00,0.00,0,1.634,1.611,-0.176,-0.096,-0.132,0.994,41.32,1178.00,692.00,-895.00,3099.0000
2622,0.00,0.00,0.00,0,1.656,1.649,-0.168,-0.096,-0.130,0.985,41.31,1188.00,680.00,-887.00,3099.0000
2648,0.00,0.00,0.00,0,1.649,1.641,-0.198,-0.099,-0.132,0.992,41.30,1196.00,682.00,-887.00,3095.0000
2674,0.00,0.00,0.00,0,1.618,1.664,-0.191,-0.096,-0.134,0.988,41.31,1200.00,680.00,-882.00,3100.0000
2723,0.00,0.00,0.00,0,1.634,1.656,-0.176,-0.097,-0.132,0.990,41.32,1178.00,692.00,-885.00,3101.0000
2752,0.00,0.00,0.00,0,1.618,1.618,-0.229,-0.098,-0.130,0.987,41.31,1178.00,680.00,-892.00,3097.0000
2781,0.00,0.00,0.00,0,1.618,1.672,-0.214,-0.099,-0.131,0.993,41.31,1181.00,680.00,-900.00,3101.0000
2810,0.00,0.00,0.00,0,1.611,1.656,-0.244,-0.097,-0.131,0.987,41.32,1200.00,692.00,-875.00,3099.0000
2838,0.00,0.00,0.00,0,1.679,1.664,-0.237,-0.095,-0.128,0.993,41.31,1183.00,685.00,-902.00,3099.0000
2872,0.00,0.00,0.00,0,1.702,1.656,-0.244,-0.098,-0.132,0.992,41.31,1193.00,685.00,-877.00,3099.0000
2901,0.00,0.00,0.00,0,1.702,1.618,-0.244,-0.098,-0.130,0.990,41.32,1183.00,665.00,-895.00,3101.0000
2930,0.00,0.00,0.00,0,1.641,1.702,-0.237,-0.098,-0.135,0.990,41.30,1181.00,670.00,-890.00,3098.0000
2959,0.00,0.00,0.00,0,1.649,1.695,-0.267,-0.095,-0.128,0.994,41.32,1191.00,677.00,-895.00,3101.0000
2988,0.00,0.00,0.00,0,1.664,1.656,-0.237,-0.096,-0.131,0.988,41.30,1176.00,682.00,-897.00,3099.0000
3022,0.00,0.00,0.00,0,1.618,1.634,-0.198,-0.094,-0.136,0.991,41.31,1200.00,675.00,-885.00,3101.0000
3050,0.00,0.00,0.00,0,1.656,1.611,-0.214,-0.099,-0.132,0.990,41.30,1186.00,672.00,-882.00,3099.0000
3079,0.00,0.00,0.00,0,1.618,1.618,-0.244,-0.098,-0.134,0.989,41.30,1193.00,682.00,-892.00,3102.0000
3108,0.00,0.00,0.00,0,1.641,1.634,-0.198,-0.095,-0.132,0.990,41.30,1186.00,670.00,-880.00,3099.0000
3139,0.00,0.00,0.00,0,1.626,1.618,-0.244,-0.096,-0.131,0.994,41.30,1193.00,685.00,-890.00,3098.0000
3173,0.00,0.00,0.00,0,1.634,1.595,-0.267,-0.097,-0.134,0.990,41.31,1178.00,670.00,-877.00,3100.0000
3202,0.00,0.00,0.00,0,1.603,1.664,-0.229,-0.098,-0.135,0.995,41.32,1186.00,670.00,-900.00,3097.0000
3231,0.00,0.00,0.00,0,1.656,1.618,-0.252,-0.098,-0.130,0.990,41.32,1198.00,682.00,-890.00,3099.0000
3260,0.00,0.00,0.00,0,1.656,1.634,-0.198,-0.094,-0.132,0.990,41.30,1193.00,680.00,-897.00,3099.0000
3289,0.00,0.00,0.00,0,1.634,1.687,-0.237,-0.099,-0.133,0.996,41.30,1178.00,682.00,-900.00,3099.0000
3323,0.00,0.00,0.00,0,1.649,1.611,-0.214,-0.094,-0.132,0.989,41.29,1188.00,687.00,-897.00,3102.0000
3352,0.00,0.00,0.00,0,1.618,1.626,-0.260,-0.097,-0.129,0.992,41.30,1191.00,665.00,-887.00,3101.0000
3381,0.00,0.00,0.00,0,1.664,1.611,-0.244,-0.095,-0.131,0.997,41.32,1191.00,680.00,-895.00,3097.0000
3410,0.00,0.00,0.00,0,1.656,1.656,-0.183,-0.101,-0.131,0.992,41.32,1207.00,680.00,-895.00,3099.0000
3439,0.00,0.00,0.00,0,1.656,1.618,-0.198,-0.095,-0.133,0.990,41.31,1186.00,670.00,-892.00,3099.0000
3473,0.00,0.00,0.00,0,1.649,1.618,-0.214,-0.097,-0.133,0.990,41.31,1191.00,672.00,-900.00,3098.0000
3502,0.00,0.00,0.00,0,1.649,1.664,-0.229,-0.096,-0.131,0.990,41.31,1176.00,670.00,-890.00,3099.0000
3531,0.00,0.00,0.00,0,1.649,1.656,-0.229,-0.094,-0.132,0.992,41.32,1173.00,682.00,-882.00,3099.0000
3560,0.00,0.00,0.00,0,1.656,1.664,-0.260,-0.095,-0.132,0.992,41.30,1188.00,677.00,-892.00,3097.0000
3589,0.00,0.00,0.00,0,1.641,1.618,-0.214,-0.095,-0.135,0.993,41.31,1186.00,675.00,-890.00,3097.0000
3633,0.00,0.00,0.00,0,1.618,1.672,-0.198,-0.099,-0.131,0.995,41.32,1181.00,675.00,-882.00,3099.0000
3662,0.00,0.00,0.00,0,1.687,1.649,-0.267,-0.099,-0.129,0.984,41.31,1196.00,672.00,-890.00,3099.0000
3691,0.00,0.00,0.00,0,1.611,1.595,-0.252,-0.100,-0.132,0.997,41.31,1183.00,682.00,-887.00,3100.0000
3720,0.00,0.00,0.00,0,1.573,1.618,-0.229,-0.096,-0.133,0.990,41.30,1181.00,667.00,-887.00,3098.0000
3749,0.00,0.00,0.00,0,1.603,1.603,-0.191,-0.094,-0.127,0.994,41.30,1186.00,675.00,-890.00,3097.0000
3783,0.00,0.00,0.00,0,1.618,1.664,-0.229,-0.095,-0.132,0.997,41.31,1186.00,667.00,-890.00,3098.0000
3812,0.00,0.00,0.00,0,1.649,1.603,-0.214,-0.094,-0.128,0.994,41.31,1196.00,682.00,-887.00,3098.0000
3841,0.00,0.00,0.00,0,1.649,1.664,-0.191,-0.098,-0.130,0.988,41.30,1191.00,682.00,-900.00,3098.0000
3870,0.00,0.00,0.00,0,1.611,1.580,-0.206,-0.099,-0.132,0.989,41.31,1191.00,672.00,-880.00,3099.0000
3899,0.00,0.00,0.00,0,1.649,1.718,-0.191,-0.102,-0.134,0.986,41.31,1191.00,675.00,-892.00,3099.0000
3928,0.00,0.00,0.00,0,1.710,1.603,-0.229,-0.094,-0.128,0.996,41.31,1200.00,685.00,-895.00,3098.0000
3971,0.00,0.00,0.00,0,1.595,1.588,-0.176,-0.108,-0.133,1.005,41.30,1191.00,687.00,-885.00,3101.0000
4000,0.00,0.00,0.00,0,1.618,1.588,-0.206,-0.094,-0.127,0.989,41.31,1193.00,685.00,-897.00,3095.0000
4029,0.00,0.00,0.00,0,1.695,1.664,-0.267,-0.096,-0.130,0.995,41.30,1193.00,687.00,-897.00,3097.0000
4070,0.00,0.00,0.00,0,1.618,1.618,-0.191,-0.098,-0.134,0.988,41.31,1181.00,675.00,-895.00,3100.0000
4108,0.00,0.00,0.00,0,1.603,1.641,-0.206,-0.100,-0.133,0.993,41.30,1191.00,692.00,-882.00,3100.0000
4142,0.00,0.00,0.00,0,1.672,1.656,-0.145,-0.101,-0.127,0.987,41.31,1183.00,667.00,-887.00,3099.0000
4171,0.00,0.00,0.00,0,1.573,1.557,-0.221,-0.091,-0.127,0.983,41.32,1188.00,672.00,-887.00,3097.0000
4200,0.00,0.00,0.00,0,1.603,1.626,-0.206,-0.094,-0.139,0.994,41.30,1193.00,667.00,-892.00,3096.0000
4228,0.00,0.00,0.00,0,1.649,1.504,-0.244,-0.095,-0.132,0.989,41.31,1198.00,685.00,-890.00,3098.0000
4257,0.00,0.00,0.00,0,1.595,1.603,-0.275,-0.096,-0.133,0.984,41.29,1181.00,662.00,-897.00,3098.0000
4291,0.00,0.00,0.00,0,1.573,1.557,-0.244,-0.096,-0.128,0.977,41.30,1200.00,677.00,-887.00,3099.0000
4320,0.00,0.00,0.00,0,1.649,1.664,-0.267,-0.099,-0.130,0.997,41.29,1191.00,670.00,-892.00,3095.0000
4349,0.00,0.00,0.00,0,1.687,1.649,-0.221,-0.094,-0.134,0.984,41.31,1196.00,672.00,-877.00,3097.0000
4378,0.00,0.00,0.00,0,1.664,1.557,-0.229,-0.096,-0.129,0.990,41.32,1188.00,682.00,-895.00,3101.0000
4407,0.00,0.00,0.00,0,1.656,1.618,-0.229,-0.101,-0.133,0.991,41.31,1198.00,685.00,-895.00,3101.0000
4441,0.00,0.00,0.00,0,1.573,1.840,-0.267,-0.098,-0.135,0.993,41.31,1173.00,698.00,-900.00,3099.0000
4470,0.00,0.00,0.00,0,1.649,1.504,-0.260,-0.096,-0.127,0.989,41.30,1198.00,677.00,-887.00,3099.0000
4498,0.00,0.00,0.00,0,1.634,1.733,-0.237,-0.098,-0.131,0.986,41.30,1186.00,672.00,-897.00,3097.0000
4527,0.00,0.00,0.00,0,1.672,1.679,-0.237,-0.095,-0.131,0.994,41.31,1181.00,670.00,-895.00,3098.0000
4556,0.00,0.00,0.00,0,1.679,1.519,-0.252,-0.095,-0.132,0.990,41.30,1198.00,680.00,-882.00,3099.0000
4591,0.00,0.00,0.00,0,1.595,1.740,-0.229,-0.098,-0.132,0.991,41.29,1193.00,677.00,-882.00,3099.0000
4630,0.00,0.00,0.00,0,1.603,1.649,-0.214,-0.095,-0.138,0.993,41.30,1193.00,675.00,-882.00,3099.0000
4658,0.00,0.00,0.00,0,1.664,1.519,-0.275,-0.096,-0.129,0.985,41.31,1186.00,665.00,-880.00,3098.0000
4687,0.00,0.00,0.00,0,1.595,1.740,-0.221,-0.097,-0.132,0.988,41.31,1200.00,677.00,-882.00,3098.0000
4716,0.00,0.00,0.00,0,1.649,1.611,-0.229,-0.095,-0.134,0.991,41.30,1193.00,662.00,-892.00,3098.0000
4750,0.00,0.00,0.00,0,1.618,1.611,-0.252,-0.095,-0.130,0.997,41.31,1178.00,670.00,-887.00,3099.0000
4779,0.00,0.00,0.00,0,1.603,1.733,-0.229,-0.096,-0.128,0.988,41.30,1186.00,685.00,-900.00,3099.0000
4808,0.00,0.00,0.00,0,1.672,1.618,-0.206,-0.097,-0.130,0.989,41.30,1196.00,670.00,-905.00,3099.0000
4837,0.00,0.00,0.00,0,1.595,1.664,-0.191,-0.095,-0.134,0.990,41.30,1198.00,682.00,-882.00,3101.0000
4866,0.00,0.00,0.00,0,1.656,1.725,-0.214,-0.097,-0.135,0.992,41.30,1193.00,692.00,-892.00,3099.0000
4902,0.00,0.00,0.00,0,1.618,1.656,-0.260,-0.099,-0.130,0.990,41.29,1186.00,675.00,-892.00,3101.0000
4931,0.00,0.00,0.00,0,1.649,1.710,-0.282,-0.098,-0.128,0.995,41.29,1202.00,670.00,-875.00,3100.0000
4959,0.00,0.00,0.00,0,1.687,1.603,-0.252,-0.097,-0.130,0.988,41.31,1181.00,672.00,-890.00,3099.0000
4988,0.00,0.00,0.00,0,1.649,1.626,-0.252,-0.098,-0.131,0.991,41.30,1178.00,677.00,-870.00,3095.0000
5017,0.00,0.00,0.00,0,1.649,1.634,-0.244,-0.095,-0.129,0.999,41.31,1196.00,677.00,-870.00,3099.0000
5051,0.00,0.00,0.00,0,1.603,1.611,-0.221,-0.098,-0.130,0.991,41.30,1183.00,667.00,-890.00,3099.0000
5080,0.00,0.00,0.00,0,1.649,1.656,-0.214,-0.095,-0.132,0.981,41.31,1186.00,685.00,-892.00,3102.0000
5108,0.00,0.00,0.00,0,1.649,1.664,-0.176,-0.096,-0.131,0.991,41.32,1196.00,682.00,-892.00,3099.0000
5137,0.00,0.00,0.00,0,1.588,1.588,-0.191,-0.095,-0.133,0.988,41.31,1178.00,672.00,-895.00,3095.0000
5166,0.00,0.00,0.00,0,1.626,1.588,-0.275,-0.099,-0.132,0.993,41.30,1193.00,685.00,-882.00,3099.0000
5215,0.00,0.00,0.00,0,1.626,1.588,-0.214,-0.093,-0.132,0.988,41.31,1181.00,682.00,-895.00,3100.0000
5256,0.00,0.00,0.00,0,1.641,1.641,-0.206,-0.096,-0.130,0.994,41.30,1191.00,670.00,-895.00,3098.0000
5284,0.00,0.00,0.00,0,1.649,1.649,-0.237,-0.098,-0.135,0.999,41.30,1188.00,677.00,-882.00,3098.0000
5313,0.00,0.00,0.00,0,1.672,1.641,-0.237,-0.093,-0.133,0.987,41.31,1188.00,667.00,-892.00,3099.0000
5342,0.00,0.00,0.00,0,1.710,1.618,-0.183,-0.098,-0.132,0.992,41.30,1181.00,680.00,-907.00,3099.0000
5371,0.00,0.00,0.00,0,1.649,1.664,-0.198,-0.095,-0.133,0.999,41.31,1181.00,682.00,-872.00,3098.0000
5404,0.00,0.00,0.00,0,1.664,1.672,-0.198,-0.097,-0.136,0.994,41.32,1183.00,682.00,-895.00,3098.0000
5433,0.00,0.00,0.00,0,1.649,1.634,-0.168,-0.096,-0.133,0.985,41.31,1191.00,672.00,-892.00,3095.0000
5462,0.00,0.00,0.00,0,1.595,1.695,-0.275,-0.098,-0.134,0.990,41.32,1178.00,660.00,-887.00,3125.0000
5491,0.00,0.00,0.00,0,1.656,1.649,-0.221,-0.094,-0.131,0.988,41.30,1167.00,675.00,-890.00,3097.0000
5520,0.00,0.00,0.00,0,1.618,1.679,-0.221,-0.101,-0.134,0.993,41.32,1193.00,685.00,-910.00,3095.0000
5553,0.00,0.00,0.00,0,1.573,1.679,-0.198,-0.100,-0.127,0.985,41.31,1183.00,667.00,-897.00,3098.0000
5582,0.00,0.00,0.00,0,1.664,1.603,-0.237,-0.093,-0.128,0.994,41.30,1181.00,670.00,-895.00,3099.0000
5611,0.00,0.00,0.00,0,1.710,1.725,-0.229,-0.097,-0.132,0.991,41.29,1176.00,677.00,-885.00,3098.0000
5650,0.00,0.00,0.00,0,1.580,1.802,-0.198,-0.098,-0.132,0.983,41.30,1178.00,672.00,-897.00,3100.0000
5679,0.00,0.00,0.00,0,1.687,1.542,-0.260,-0.092,-0.132,0.994,41.30,1181.00,675.00,-895.00,3099.0000
5713,0.00,0.00,0.00,0,1.702,1.519,-0.214,-0.095,-0.134,0.989,41.31,1183.00,677.00,-892.00,3099.0000
5742,0.00,0.00,0.00,0,1.656,1.679,-0.221,-0.094,-0.131,0.988,41.32,1181.00,682.00,-890.00,3098.0000
5785,0.00,0.00,0.00,0,1.702,1.634,-0.153,-0.094,-0.132,0.993,41.30,1198.00,685.00,-892.00,3098.0000
5814,0.00,0.00,0.00,0,1.710,1.550,-0.198,-0.095,-0.130,0.993,41.31,1183.00,662.00,-890.00,3100.0000
5843,0.00,0.00,0.00,0,1.611,1.649,-0.153,-0.095,-0.131,0.992,41.31,1191.00,675.00,-892.00,3098.0000
5877,0.00,0.00,0.00,0,1.664,1.603,-0.198,-0.096,-0.132,0.991,41.31,1193.00,672.00,-900.00,3099.0000
5906,0.00,0.00,0.00,0,1.656,1.687,-0.176,-0.093,-0.132,0.993,41.30,1188.00,695.00,-892.00,3098.0000
5935,0.00,0.00,0.00,0,1.672,1.687,-0.198,-0.095,-0.132,0.996,41.31,1188.00,690.00,-887.00,3099.0000
5964,0.00,0.00,0.00,0,1.672,1.641,-0.214,-0.096,-0.132,0.992,41.30,1196.00,675.00,-895.00,3097.0000
5993,0.00,0.00,0.00,0,1.565,1.641,-0.244,-0.094,-0.127,0.986,41.32,1198.00,677.00,-890.00,3098.0000
6027,0.00,0.00,0.00,0,1.626,1.641,-0.237,-0.094,-0.134,0.994,41.31,1193.00,680.00,-882.00,3098.0000
6056,0.00,0.00,0.00,0,1.618,1.634,-0.298,-0.095,-0.128,0.990,41.31,1186.00,680.00,-880.00,3100.0000
6085,0.00,0.00,0.00,0,1.626,1.718,-0.282,-0.093,-0.130,0.984,41.31,1191.00,680.00,-897.00,3098.0000
6114,0.00,0.00,0.00,0,1.718,1.489,-0.282,-0.094,-0.126,0.989,41.31,1196.00,680.00,-887.00,3095.0000
6143,0.00,0.00,0.00,0,1.756,1.679,-0.298,-0.102,-0.132,0.994,41.30,1183.00,675.00,-890.00,3095.0000
6177,0.00,0.00,0.00,0,1.679,1.611,-0.198,-0.095,-0.130,0.992,41.31,1183.00,672.00,-902.00,3098.0000
6206,0.00,0.00,0.00,0,1.611,1.672,-0.206,-0.099,-0.126,0.991,41.29,1186.00,685.00,-890.00,3099.0000
6235,0.00,0.00,0.00,0,1.626,1.763,-0.229,-0.098,-0.132,0.996,41.30,1188.00,675.00,-880.00,3098.0000
6264,0.00,0.00,0.00,0,1.649,1.641,-0.221,-0.094,-0.130,0.994,41.30,1188.00,677.00,-900.00,3098.0000
6293,0.00,0.00,0.00,0,1.664,1.695,-0.176,-0.096,-0.133,0.992,41.30,1186.00,677.00,-895.00,3099.0000
6326,0.00,0.00,0.00,0,1.679,1.580,-0.237,-0.093,-0.132,0.995,41.30,1186.00,675.00,-892.00,3095.0000
6355,0.00,0.00,0.00,0,1.695,1.626,-0.282,-0.099,-0.132,0.989,41.30,1193.00,675.00,-885.00,3098.0000
6384,0.00,0.00,0.00,0,1.664,1.626,-0.252,-0.097,-0.132,0.985,41.30,1188.00,682.00,-897.00,3099.0000
6413,0.00,0.00,0.00,0,1.611,1.664,-0.206,-0.098,-0.134,0.992,41.30,1186.00,677.00,-880.00,3099.0000
6442,0.00,0.00,0.00,0,1.634,1.649,-0.206,-0.092,-0.131,0.991,41.30,1191.00,682.00,-895.00,3099.0000
6492,0.00,0.00,0.00,0,1.618,1.733,-0.183,-0.096,-0.130,0.993,41.30,1183.00,675.00,-887.00,3098.0000
6521,0.00,0.00,0.00,0,1.634,1.641,-0.214,-0.096,-0.130,0.990,41.29,1198.00,665.00,-877.00,3098.0000
6550,0.00,0.00,0.00,0,1.641,1.664,-0.229,-0.096,-0.132,0.988,41.29,1191.00,695.00,-895.00,3100.0000
6579,0.00,0.00,0.00,0,1.687,1.611,-0.252,-0.095,-0.127,1.000,41.29,1205.00,677.00,-895.00,3101.0000
6608,0.00,0.00,0.00,0,1.679,1.611,-0.206,-0.094,-0.131,0.992,41.29,1196.00,675.00,-882.00,3097.0000
6640,0.00,0.00,0.00,0,1.611,1.595,-0.252,-0.097,-0.138,0.983,41.30,1188.00,675.00,-890.00,3100.0000
6684,0.00,0.00,0.00,0,1.634,1.725,-0.260,-0.097,-0.128,0.992,41.30,1183.00,677.00,-887.00,3098.0000
6713,0.00,0.00,0.00,0,1.634,1.664,-0.275,-0.091,-0.132,0.991,41.30,1193.00,680.00,-887.00,3098.0000
6742,0.00,0.00,0.00,0,1.641,1.740,-0.290,-0.098,-0.132,0.990,41.30,1186.00,670.00,-895.00,3102.0000
6771,0.00,0.00,0.00,0,1.641,1.618,-0.260,-0.096,-0.130,0.982,41.31,1186.00,682.00,-882.00,3096.0000
6799,0.00,0.00,0.00,0,1.695,1.679,-0.267,-0.098,-0.131,0.990,41.32,1196.00,687.00,-902.00,3099.0000
6833,0.00,0.00,0.00,0,1.618,1.679,-0.260,-0.095,-0.133,0.988,41.29,1183.00,675.00,-900.00,3101.0000
6862,0.00,0.00,0.00,0,1.664,1.679,-0.176,-0.095,-0.135,0.993,41.30,1186.00,677.00,-905.00,3093.0000
6891,0.00,0.00,0.00,0,1.603,1.634,-0.206,-0.094,-0.132,0.986,41.30,1198.00,685.00,-875.00,3102.0000
6920,0.00,0.00,0.00,0,1.603,1.672,-0.275,-0.097,-0.130,0.998,41.29,1178.00,672.00,-880.00,3099.0000
6949,0.00,0.00,0.00,0,1.603,1.664,-0.206,-0.097,-0.128,0.993,41.29,1181.00,677.00,-895.00,3099.0000
6983,0.00,0.00,0.00,0,1.626,1.580,-0.229,-0.092,-0.128,0.983,41.29,1193.00,690.00,-897.00,3098.0000
7012,0.00,0.00,0.00,0,1.618,1.733,-0.229,-0.101,-0.129,0.995,41.31,1191.00,660.00,-895.00,3098.0000
7041,0.00,0.00,0.00,0,1.565,1.656,-0.221,-0.093,-0.134,0.990,41.30,1183.00,682.00,-910.00,3095.0000
7070,0.00,0.00,0.00,0,1.603,1.824,-0.237,-0.100,-0.130,0.989,41.31,1176.00,692.00,-887.00,3098.0000
7098,0.00,0.00,0.00,0,1.550,1.534,-0.221,-0.089,-0.135,0.980,41.30,1188.00,672.00,-890.00,3099.0000
7132,0.00,0.00,0.00,0,1.679,1.618,-0.206,-0.095,-0.134,0.997,41.30,1181.00,680.00,-892.00,3101.0000
7161,0.00,0.00,0.00,0,1.603,1.763,-0.214,-0.097,-0.130,0.988,41.31,1181.00,660.00,-897.00,3098.0000
7190,0.00,0.00,0.00,0,1.695,1.496,-0.221,-0.095,-0.131,0.992,41.30,1178.00,680.00,-897.00,3097.0000
7219,0.00,0.00,0.00,0,1.687,1.656,-0.206,-0.098,-0.132,0.990,41.30,1178.00,667.00,-900.00,3098.0000
7248,0.00,0.00,0.00,0,1.656,1.672,-0.214,-0.097,-0.133,0.998,41.31,1183.00,675.00,-895.00,3097.0000
7282,0.00,0.00,0.00,0,1.626,1.573,-0.275,-0.093,-0.131,0.991,41.31,1191.00,692.00,-895.00,3098.0000
7311,0.00,0.00,0.00,0,1.618,1.725,-0.221,-0.099,-0.132,0.993,41.30,1183.00,667.00,-872.00,3099.0000
7340,0.00,0.00,0.00,0,1.695,1.527,-0.214,-0.094,-0.131,0.996,41.29,1186.00,687.00,-890.00,3099.0000
7368,0.00,0.00,0.00,0,1.649,1.695,-0.214,-0.095,-0.136,0.997,41.29,1186.00,677.00,-890.00,3098.0000
7397,0.00,0.00,0.00,0,1.573,1.618,-0.214,-0.097,-0.134,0.987,41.29,1176.00,690.00,-877.00,3099.0000
7431,0.00,0.00,0.00,0,1.618,1.580,-0.244,-0.088,-0.131,0.989,41.30,1186.00,665.00,-875.00,3098.0000
7460,0.00,0.00,0.00,0,1.618,1.672,-0.237,-0.097,-0.129,0.990,41.28,1186.00,672.00,-890.00,3095.0000
7510,0.00,0.00,0.00,0,1.634,1.641,-0.183,-0.094,-0.133,0.994,41.31,1181.00,672.00,-897.00,3094.0000
7538,0.00,0.00,0.00,0,1.656,1.626,-0.237,-0.096,-0.131,0.987,41.30,1183.00,672.00,-910.00,3097.0000
7567,0.00,0.00,0.00,0,1.656,1.664,-0.237,-0.096,-0.130,0.992,41.30,1186.00,675.00,-885.00,3098.0000
7601,0.00,0.00,0.00,0,1.656,1.656,-0.206,-0.094,-0.130,0.998,41.30,1191.00,687.00,-880.00,3102.0000
7629,0.00,0.00,0.00,0,1.626,1.641,-0.282,-0.097,-0.131,0.990,41.30,1188.00,677.00,-887.00,3098.0000
7658,0.00,0.00,0.00,0,1.588,1.588,-0.198,-0.096,-0.130,0.991,41.29,1173.00,667.00,-887.00,3100.0000
7697,0.00,0.00,0.00,0,1.649,1.573,-0.214,-0.095,-0.131,0.990,41.30,1178.00,677.00,-887.00,3101.0000
7726,0.00,0.00,0.00,0,1.641,1.595,-0.191,-0.097,-0.131,0.989,41.30,1167.00,672.00,-897.00,3098.0000
7775,0.00,0.00,0.00,0,1.710,1.626,-0.198,-0.096,-0.133,0.993,41.29,1183.00,665.00,-887.00,3097.0000
7815,0.00,0.00,0.00,0,1.641,1.710,-0.244,-0.099,-0.130,0.995,41.30,1168.00,680.00,-887.00,3099.0000
7843,0.00,0.00,0.00,0,1.626,1.649,-0.198,-0.100,-0.131,0.992,41.31,1183.00,682.00,-900.00,3097.0000
7872,0.00,0.00,0.00,0,1.672,1.557,-0.267,-0.097,-0.129,0.995,41.30,1198.00,687.00,-885.00,3101.0000
7901,0.00,0.00,0.00,0,1.664,1.618,-0.160,-0.095,-0.130,0.994,41.30,1173.00,667.00,-895.00,3098.0000
7929,0.00,0.00,0.00,0,1.611,1.611,-0.267,-0.096,-0.135,0.988,41.30,1173.00,675.00,-895.00,3099.0000
7957,0.00,0.00,0.00,0,1.664,1.595,-0.221,-0.096,-0.131,0.990,41.30,1188.00,675.00,-892.00,3097.0000
7986,0.00,0.00,0.00,0,1.664,1.710,-0.198,-0.096,-0.136,0.989,41.29,1176.00,697.00,-877.00,3098.0000
8015,0.00,0.00,0.00,0,1.664,1.618,-0.252,-0.099,-0.134,0.993,41.29,1186.00,672.00,-887.00,3098.0000
8043,0.00,0.00,0.00,0,1.634,1.679,-0.229,-0.098,-0.128,0.993,41.29,1188.00,670.00,-912.00,3095.0000
8072,0.00,0.00,0.00,0,1.634,1.618,-0.221,-0.097,-0.128,0.990,41.30,1191.00,670.00,-882.00,3098.0000
8106,0.00,0.00,0.00,0,1.664,1.649,-0.168,-0.096,-0.137,0.995,41.29,1186.00,665.00,-905.00,3099.0000
8135,0.00,0.00,0.00,0,1.611,1.710,-0.244,-0.095,-0.136,0.990,41.31,1178.00,662.00,-895.00,3098.0000
8164,0.00,0.00,0.00,0,1.595,1.580,-0.214,-0.094,-0.131,0.987,41.29,1188.00,672.00,-887.00,3098.0000
8192,0.00,0.00,0.00,0,1.672,1.656,-0.198,-0.093,-0.132,0.991,41.30,1196.00,695.00,-900.00,3099.0000
8221,0.00,0.00,0.00,0,1.679,1.656,-0.198,-0.099,-0.130,0.986,41.30,1183.00,670.00,-895.00,3094.0000
8255,0.00,0.00,0.00,0,1.710,1.634,-0.191,-0.100,-0.135,0.987,41.29,1168.00,677.00,-895.00,3099.0000
8283,0.00,0.00,0.00,0,1.649,1.603,-0.198,-0.097,-0.134,0.994,41.29,1181.00,695.00,-895.00,3098.0000
8312,0.00,0.00,0.00,0,1.649,1.656,-0.221,-0.097,-0.131,0.987,41.29,1186.00,667.00,-882.00,3099.0000
8341,0.00,0.00,0.00,0,1.634,1.649,-0.237,-0.096,-0.129,0.988,41.30,1188.00,670.00,-895.00,3101.0000
8370,0.00,0.00,0.00,0,1.664,1.695,-0.229,-0.096,-0.133,0.988,41.30,1173.00,672.00,-900.00,3098.0000
8405,0.00,0.00,0.00,0,1.626,1.618,-0.229,-0.098,-0.137,0.990,41.30,1186.00,685.00,-885.00,3099.0000
8434,0.00,0.00,0.00,0,1.656,1.626,-0.237,-0.099,-0.131,0.987,41.28,1188.00,670.00,-887.00,3097.0000
8463,0.00,0.00,0.00,0,1.641,1.664,-0.260,-0.097,-0.130,0.989,41.29,1186.00,682.00,-897.00,3095.0000
8492,0.00,0.00,0.00,0,1.588,1.702,-0.221,-0.095,-0.128,0.994,41.30,1193.00,682.00,-887.00,3099.0000
8521,0.00,0.00,0.00,0,1.649,1.641,-0.221,-0.097,-0.132,0.992,41.30,1178.00,675.00,-892.00,3098.0000
8554,0.00,0.00,0.00,0,1.649,1.641,-0.282,-0.098,-0.130,0.991,41.30,1178.00,672.00,-890.00,3100.0000
8583,0.00,0.00,0.00,0,1.618,1.626,-0.275,-0.098,-0.131,0.993,41.30,1178.00,685.00,-897.00,3095.0000
8612,0.00,0.00,0.00,0,1.641,1.664,-0.275,-0.096,-0.129,0.994,41.30,1186.00,677.00,-895.00,3099.0000
8641,0.00,0.00,0.00,0,1.611,1.641,-0.260,-0.098,-0.132,0.990,41.30,1186.00,675.00,-897.00,3097.0000
8670,0.00,0.00,0.00,0,1.626,1.656,-0.260,-0.096,-0.131,0.988,41.29,1181.00,680.00,-877.00,3100.0000
8714,0.00,0.00,0.00,0,1.611,1.725,-0.351,-0.097,-0.127,0.989,41.31,1193.00,672.00,-882.00,3101.0000
8743,0.00,0.00,0.00,0,1.656,1.634,-0.298,-0.095,-0.133,0.988,41.30,1186.00,680.00,-902.00,3099.0000
8772,0.00,0.00,0.00,0,1.618,1.656,-0.252,-0.101,-0.132,0.987,41.30,1186.00,677.00,-895.00,3098.0000
8800,0.00,0.00,0.00,0,1.649,1.557,-0.260,-0.097,-0.131,0.988,41.30,1186.00,677.00,-895.00,3099.0000
8829,0.00,0.00,0.00,0,1.649,1.618,-0.290,-0.096,-0.133,0.987,41.29,1181.00,672.00,-870.00,3097.0000
8863,0.00,0.00,0.00,0,1.618,1.595,-0.252,-0.095,-0.133,0.989,41.31,1186.00,685.00,-897.00,3099.0000
8892,0.00,0.00,0.00,0,1.634,1.695,-0.267,-0.099,-0.135,0.990,41.29,1183.00,675.00,-887.00,3098.0000
8921,0.00,0.00,0.00,0,1.656,1.534,-0.229,-0.093,-0.132,0.992,41.30,1183.00,685.00,-882.00,3097.0000
8950,0.00,0.00,0.00,0,1.634,1.664,-0.214,-0.094,-0.129,0.988,41.30,1186.00,675.00,-887.00,3102.0000
8978,0.00,0.00,0.00,0,1.656,1.656,-0.198,-0.102,-0.132,0.992,41.28,1191.00,677.00,-890.00,3100.0000
9028,0.00,0.00,0.00,0,1.634,1.626,-0.244,-0.096,-0.131,0.987,41.30,1181.00,665.00,-885.00,3097.0000
9057,0.00,0.00,0.00,0,1.618,1.626,-0.282,-0.094,-0.130,0.990,41.30,1181.00,675.00,-897.00,3101.0000
9085,0.00,0.00,0.00,0,1.641,1.710,-0.221,-0.096,-0.130,0.992,41.30,1173.00,670.00,-905.00,3099.0000
9114,0.00,0.00,0.00,0,1.641,1.656,-0.214,-0.097,-0.131,0.993,41.30,1181.00,675.00,-882.00,3098.0000
9143,0.00,0.00,0.00,0,1.695,1.672,-0.244,-0.095,-0.127,0.990,41.30,1200.00,670.00,-897.00,3098.0000
9181,0.00,0.00,0.00,0,1.634,1.649,-0.229,-0.100,-0.131,0.992,41.30,1183.00,675.00,-902.00,3099.0000
9219,0.00,0.00,0.00,0,1.656,1.649,-0.221,-0.095,-0.132,0.986,41.31,1188.00,670.00,-902.00,3101.0000
9248,0.00,0.00,0.00,0,1.656,1.679,-0.267,-0.094,-0.129,0.988,41.29,1183.00,675.00,-892.00,3098.0000
9277,0.00,0.00,0.00,0,1.687,1.687,-0.214,-0.097,-0.134,0.993,41.30,1178.00,672.00,-887.00,3099.0000
9306,0.00,0.00,0.00,0,1.679,1.679,-0.221,-0.097,-0.135,0.990,41.31,1202.00,682.00,-902.00,3100.0000
9335,0.00,0.00,0.00,0,1.679,1.702,-0.237,-0.097,-0.133,0.991,41.30,1178.00,677.00,-885.00,3099.0000
9369,0.00,0.00,0.00,0,1.656,1.664,-0.206,-0.096,-0.130,0.990,41.30,1186.00,677.00,-895.00,3101.0000
9398,0.00,0.00,0.00,0,1.634,1.679,-0.267,-0.095,-0.132,0.989,41.30,1183.00,665.00,-897.00,3095.0000
9427,0.00,0.00,0.00,0,1.641,1.641,-0.260,-0.096,-0.132,0.991,41.30,1183.00,685.00,-882.00,3098.0000
9456,0.00,0.00,0.00,0,1.634,1.634,-0.191,-0.094,-0.132,0.995,41.30,1168.00,667.00,-905.00,3101.0000
9485,0.00,0.00,0.00,0,1.672,1.664,-0.229,-0.098,-0.130,0.991,41.31,1181.00,670.00,-895.00,3098.0000
9518,0.00,0.00,0.00,0,1.649,1.672,-0.198,-0.099,-0.129,0.990,41.30,1191.00,677.00,-882.00,3101.0000
9547,0.00,0.00,0.00,0,1.641,1.626,-0.153,-0.099,-0.133,0.988,41.30,1183.00,677.00,-882.00,3099.0000
9576,0.00,0.00,0.00,0,1.664,1.611,-0.214,-0.098,-0.134,0.993,41.31,1186.00,680.00,-887.00,3097.0000
9605,0.00,0.00,0.00,0,1.664,1.611,-0.244,-0.094,-0.137,0.989,41.31,1178.00,672.00,-897.00,3098.0000
9634,0.00,0.00,0.00,0,1.679,1.573,-0.221,-0.094,-0.133,0.988,41.30,1186.00,682.00,-885.00,3099.0000
9668,0.00,0.00,0.00,0,1.641,1.618,-0.214,-0.097,-0.134,0.983,41.29,1193.00,682.00,-880.00,3099.0000
9698,0.00,0.00,0.00,0,1.641,1.679,-0.244,-0.096,-0.136,0.988,41.31,1181.00,667.00,-892.00,3095.0000
9737,0.00,0.00,0.00,0,1.656,1.649,-0.275,-0.094,-0.130,0.994,41.30,1183.00,665.00,-895.00,3099.0000
9766,0.00,0.00,0.00,0,1.656,1.649,-0.237,-0.099,-0.130,0.987,41.31,1191.00,682.00,-885.00,3099.0000
9795,0.00,0.00,0.00,0,1.656,1.626,-0.221,-0.096,-0.135,0.993,41.31,1188.00,675.00,-882.00,3099.0000
9828,0.00,0.00,0.00,0,1.664,1.664,-0.244,-0.098,-0.127,0.992,41.32,1181.00,680.00,-897.00,3099.0000
9857,0.00,0.00,0.00,0,1.733,1.656,-0.229,-0.100,-0.132,0.991,41.31,1181.00,667.00,-902.00,3099.0000
9886,0.00,0.00,0.00,0,1.626,1.679,-0.191,-0.094,-0.134,0.991,41.32,1186.00,680.00,-890.00,3097.0000
9915,0.00,0.00,0.00,0,1.656,1.641,-0.214,-0.095,-0.132,0.994,41.31,1178.00,670.00,-895.00,3099.0000
9944,0.00,0.00,0.00,0,1.656,1.603,-0.183,-0.095,-0.131,0.996,41.31,1193.00,682.00,-917.00,3101.0000
9978,0.00,0.00,0.00,0,1.649,1.695,-0.198,-0.093,-0.131,0.993,41.31,1183.00,672.00,-902.00,3100.0000
10007,0.00,0.00,0.00,0,1.649,1.664,-0.160,-0.097,-0.132,0.991,41.31,1191.00,690.00,-875.00,3095.0000
10036,0.00,0.00,0.00,0,1.618,1.611,-0.214,-0.097,-0.130,0.989,41.30,1193.00,690.00,-885.00,3098.0000
10065,0.00,0.00,0.00,0,1.573,1.649,-0.252,-0.097,-0.132,0.996,41.30,1183.00,656.00,-897.00,3099.0000
10094,0.00,0.00,0.00,0,1.679,1.603,-0.221,-0.094,-0.135,0.992,41.30,1186.00,680.00,-900.00,3097.0000
10128,0.00,0.00,0.00,0,1.649,1.611,-0.214,-0.096,-0.129,0.989,41.30,1171.00,677.00,-897.00,3100.0000
10159,0.00,0.00,0.00,0,1.618,1.664,-0.298,-0.098,-0.126,0.991,41.29,1181.00,682.00,-895.00,3101.0000
10294,0.00,0.00,0.00,0,1.672,1.595,-0.282,-0.096,-0.130,0.995,41.31,1173.00,675.00,-895.00,3097.0000
10425,0.00,0.00,0.00,0,1.626,1.626,-0.191,-0.098,-0.134,0.991,41.32,1198.00,680.00,-892.00,3097.0000
10556,0.00,0.00,0.00,0,1.611,1.679,-0.229,-0.097,-0.129,0.994,41.32,1186.00,680.00,-895.00,3097.0000
10898,0.00,0.00,0.00,0,1.603,1.626,-0.176,-0.098,-0.130,0.991,41.31,1196.00,675.00,-895.00,3098.0000
10981,0.00,0.00,0.00,0,1.618,1.634,-0.221,-0.094,-0.130,0.985,41.32,1196.00,685.00,-895.00,3098.0000
11010,0.00,0.00,0.00,0,1.641,1.588,-0.221,-0.097,-0.134,0.995,41.31,1183.00,677.00,-895.00,3101.0000
11039,0.00,0.00,0.00,0,1.649,1.649,-0.160,-0.094,-0.132,0.992,41.30,1196.00,680.00,-892.00,3102.0000
11068,0.00,0.00,0.00,0,1.656,1.641,-0.229,-0.098,-0.131,0.995,41.31,1205.00,682.00,-880.00,3095.0000
11102,0.00,0.00,0.00,0,1.687,1.618,-0.229,-0.100,-0.136,0.990,41.31,1193.00,670.00,-885.00,3097.0000
11131,0.00,0.00,0.00,0,1.672,1.649,-0.229,-0.098,-0.129,0.991,41.32,1181.00,665.00,-892.00,3097.0000
11159,0.00,0.00,0.00,0,1.649,1.656,-0.252,-0.099,-0.132,0.993,41.31,1178.00,670.00,-902.00,3094.0000
11188,0.00,0.00,0.00,0,1.618,1.718,-0.229,-0.098,-0.130,0.990,41.32,1173.00,672.00,-892.00,3098.0000
11217,0.00,0.00,0.00,0,1.664,1.626,-0.252,-0.097,-0.126,0.994,41.32,1178.00,677.00,-897.00,3100.0000
11251,0.00,0.00,0.00,0,1.618,1.634,-0.237,-0.094,-0.131,0.992,41.32,1191.00,680.00,-885.00,3095.0000
11280,0.00,0.00,0.00,0,1.641,1.626,-0.221,-0.096,-0.135,0.987,41.30,1186.00,695.00,-882.00,3098.0000
11309,0.00,0.00,0.00,0,1.588,1.649,-0.244,-0.094,-0.134,0.987,41.30,1181.00,667.00,-895.00,3099.0000
11338,0.00,0.00,0.00,0,1.634,1.626,-0.244,-0.096,-0.132,0.992,41.31,1181.00,690.00,-885.00,3100.0000
11367,0.00,0.00,0.00,0,1.664,1.618,-0.191,-0.097,-0.132,0.995,41.32,1181.00,675.00,-892.00,3099.0000
11401,0.00,0.00,0.00,0,1.649,1.626,-0.237,-0.097,-0.130,0.987,41.32,1183.00,675.00,-895.00,3101.0000
11429,0.00,0.00,0.00,0,1.664,1.649,-0.206,-0.098,-0.133,0.994,41.32,1196.00,682.00,-890.00,3098.0000
11458,0.00,0.00,0.00,0,1.649,1.641,-0.260,-0.099,-0.130,0.990,41.32,1181.00,677.00,-892.00,3099.0000
11487,0.00,0.00,0.00,0,1.679,1.634,-0.221,-0.096,-0.129,0.991,41.32,1186.00,682.00,-885.00,3097.0000
11530,0.00,0.00,0.00,0,1.649,1.634,-0.267,-0.094,-0.137,0.991,41.31,1181.00,680.00,-880.00,3098.0000
11572,0.00,0.00,0.00,0,1.626,1.611,-0.252,-0.096,-0.136,0.987,41.32,1188.00,677.00,-882.00,3099.0000
11601,0.00,0.00,0.00,0,1.649,1.611,-0.221,-0.093,-0.134,0.988,41.32,1178.00,690.00,-890.00,3097.0000
11630,0.00,0.00,0.00,0,1.695,1.656,-0.214,-0.094,-0.134,0.989,41.33,1191.00,675.00,-885.00,3099.0000
11659,0.00,0.00,0.00,0,1.664,1.649,-0.229,-0.096,-0.132,0.991,41.32,1183.00,687.00,-897.00,3101.0000
11688,0.00,0.00,0.00,0,1.634,1.618,-0.260,-0.094,-0.131,0.989,41.32,1181.00,680.00,-900.00,3099.0000
11716,0.00,0.00,0.00,0,1.634,1.641,-0.244,-0.096,-0.131,0.990,41.32,1186.00,675.00,-900.00,3099.0000
11750,0.00,0.00,0.00,0,1.664,1.672,-0.252,-0.097,-0.129,0.992,41.31,1198.00,677.00,-875.00,3099.0000
11779,0.00,0.00,0.00,0,1.634,1.672,-0.229,-0.097,-0.131,0.993,41.34,1178.00,677.00,-892.00,3098.0000
11807,0.00,0.00,0.00,0,1.618,1.710,-0.206,-0.095,-0.132,0.991,41.33,1200.00,670.00,-907.00,3099.0000
11836,0.00,0.00,0.00,0,1.664,1.618,-0.176,-0.096,-0.136,0.992,41.32,1193.00,687.00,-875.00,3099.0000
11865,0.00,0.00,0.00,0,1.672,1.611,-0.214,-0.097,-0.132,0.990,41.33,1186.00,692.00,-880.00,3097.0000
11899,0.00,0.00,0.00,0,1.656,1.656,-0.214,-0.097,-0.133,0.997,41.32,1188.00,677.00,-892.00,3095.0000
11928,0.00,0.00,0.00,0,1.641,1.626,-0.244,-0.096,-0.130,0.992,41.32,1188.00,677.00,-885.00,3097.0000
11967,0.00,0.00,0.00,0,1.626,1.679,-0.229,-0.096,-0.132,0.987,41.32,1183.00,677.00,-880.00,3097.0000
11995,0.00,0.00,0.00,0,1.626,1.687,-0.214,-0.093,-0.133,0.991,41.32,1181.00,682.00,-880.00,3098.0000
12024,0.00,0.00,0.00,0,1.580,1.641,-0.244,-0.095,-0.130,1.000,41.32,1183.00,680.00,-897.00,3098.0000
12058,0.00,0.00,0.00,0,1.611,1.641,-0.298,-0.096,-0.125,0.988,41.33,1183.00,670.00,-900.00,3101.0000
12087,0.00,0.00,0.00,0,1.656,1.611,-0.237,-0.097,-0.130,0.994,41.32,1181.00,690.00,-895.00,3099.0000
12116,0.00,0.00,0.00,0,1.611,1.618,-0.229,-0.096,-0.129,0.997,41.31,1176.00,687.00,-885.00,3101.0000
12144,0.00,0.00,0.00,0,1.595,1.679,-0.221,-0.096,-0.134,0.993,41.32,1191.00,695.00,-890.00,3094.0000
12173,0.00,0.00,0.00,0,1.679,1.626,-0.244,-0.095,-0.131,0.990,41.32,1181.00,680.00,-897.00,3097.0000
12222,0.00,0.00,0.00,0,1.649,1.618,-0.252,-0.096,-0.131,0.984,41.32,1176.00,675.00,-907.00,3097.0000
12251,0.00,0.00,0.00,0,1.634,1.649,-0.237,-0.095,-0.130,0.999,41.33,1183.00,675.00,-890.00,3099.0000
12280,0.00,0.00,0.00,0,1.611,1.695,-0.275,-0.094,-0.134,0.990,41.32,1183.00,675.00,-892.00,3097.0000
12309,0.00,0.00,0.00,0,1.649,1.664,-0.229,-0.097,-0.133,0.990,41.32,1188.00,685.00,-897.00,3095.0000
12337,0.00,0.00,0.00,0,1.611,1.649,-0.260,-0.098,-0.135,0.993,41.32,1188.00,680.00,-907.00,3099.0000
12371,0.00,0.00,0.00,0,1.649,1.565,-0.229,-0.097,-0.133,0.986,41.32,1191.00,690.00,-887.00,3098.0000
12400,0.00,0.00,0.00,0,1.611,1.664,-0.260,-0.097,-0.129,0.991,41.33,1176.00,672.00,-885.00,3095.0000
12428,0.00,0.00,0.00,0,1.634,1.634,-0.237,-0.098,-0.131,0.993,41.32,1183.00,672.00,-895.00,3098.0000
12457,0.00,0.00,0.00,0,1.649,1.595,-0.198,-0.095,-0.129,0.991,41.32,1191.00,665.00,-887.00,3097.0000
12486,0.00,0.00,0.00,0,1.626,1.618,-0.229,-0.097,-0.137,0.993,41.31,1181.00,682.00,-887.00,3099.0000
12520,0.00,0.00,0.00,0,1.634,1.634,-0.244,-0.093,-0.134,0.992,41.31,1186.00,672.00,-892.00,3097.0000
12550,0.00,0.00,0.00,0,1.618,1.595,-0.290,-0.095,-0.129,0.988,41.32,1181.00,682.00,-882.00,3098.0000
12579,0.00,0.00,0.00,0,1.634,1.573,-0.244,-0.096,-0.133,0.990,41.32,1186.00,677.00,-900.00,3100.0000
12608,0.00,0.00,0.00,0,1.611,1.634,-0.237,-0.094,-0.129,0.991,41.32,1188.00,682.00,-887.00,3098.0000
12637,0.00,0.00,0.00,0,1.634,1.656,-0.237,-0.096,-0.135,0.999,41.32,1186.00,685.00,-900.00,3101.0000
12670,0.00,0.00,0.00,0,1.656,1.626,-0.229,-0.095,-0.128,0.990,41.33,1188.00,680.00,-882.00,3098.0000
12699,0.00,0.00,0.00,0,1.580,1.664,-0.206,-0.097,-0.134,0.994,41.32,1181.00,675.00,-890.00,3100.0000
12728,0.00,0.00,0.00,0,1.641,1.656,-0.260,-0.094,-0.130,0.987,41.30,1191.00,682.00,-900.00,3097.0000
12757,0.00,0.00,0.00,0,1.618,1.611,-0.214,-0.096,-0.133,0.991,41.32,1181.00,670.00,-890.00,3101.0000
12785,0.00,0.00,0.00,0,1.634,1.618,-0.206,-0.095,-0.135,0.992,41.33,1191.00,685.00,-870.00,3098.0000
12819,0.00,0.00,0.00,0,1.611,1.664,-0.198,-0.098,-0.133,0.989,41.32,1176.00,662.00,-890.00,3099.0000
12848,0.00,0.00,0.00,0,1.588,1.580,-0.260,-0.097,-0.129,0.990,41.32,1196.00,690.00,-897.00,3099.0000
12877,0.00,0.00,0.00,0,1.595,1.588,-0.298,-0.098,-0.130,0.997,41.32,1196.00,685.00,-882.00,3099.0000
12905,0.00,0.00,0.00,0,1.603,1.611,-0.206,-0.096,-0.136,0.993,41.32,1173.00,680.00,-897.00,3099.0000
12934,0.00,0.00,0.00,0,1.580,1.626,-0.221,-0.098,-0.133,0.989,41.32,1188.00,670.00,-890.00,3098.0000
12978,0.00,0.00,0.00,0,1.634,1.649,-0.191,-0.094,-0.132,0.994,41.32,1183.00,665.00,-890.00,3099.0000
13007,0.00,0.00,0.00,0,1.634,1.626,-0.221,-0.097,-0.132,0.992,41.32,1186.00,687.00,-892.00,3095.0000
13036,0.00,0.00,0.00,0,1.634,1.664,-0.221,-0.099,-0.134,0.992,41.32,1183.00,672.00,-890.00,3098.0000
13065,0.00,0.00,0.00,0,1.649,1.573,-0.221,-0.098,-0.133,0.993,41.32,1200.00,667.00,-887.00,3098.0000
13093,0.00,0.00,0.00,0,1.595,1.649,-0.267,-0.097,-0.133,0.993,41.33,1188.00,675.00,-877.00,3098.0000
13127,0.00,0.00,0.00,0,1.634,1.649,-0.206,-0.095,-0.137,0.991,41.32,1191.00,685.00,-890.00,3095.0000
13156,0.00,0.00,0.00,0,1.710,1.611,-0.275,-0.095,-0.135,0.993,41.33,1168.00,667.00,-890.00,3094.0000
13184,0.00,0.00,0.00,0,1.649,1.626,-0.282,-0.096,-0.130,0.993,41.32,1178.00,672.00,-892.00,3098.0000
13223,0.00,0.00,0.00,0,1.656,1.718,-0.176,-0.096,-0.133,0.991,41.34,1181.00,680.00,-890.00,3100.0000
13261,0.00,0.00,0.00,0,1.656,1.664,-0.229,-0.097,-0.131,0.989,41.32,1186.00,687.00,-890.00,3098.0000
13294,0.00,0.00,0.00,0,1.656,1.611,-0.237,-0.096,-0.129,0.986,41.32,1193.00,690.00,-890.00,3098.0000
13322,0.00,0.00,0.00,0,1.634,1.611,-0.214,-0.098,-0.133,0.991,41.32,1176.00,685.00,-892.00,3097.0000
13351,0.00,0.00,0.00,0,1.595,1.618,-0.229,-0.095,-0.132,0.987,41.34,1183.00,692.00,-882.00,3099.0000
13380,0.00,0.00,0.00,0,1.603,1.649,-0.267,-0.097,-0.132,0.991,41.32,1183.00,680.00,-882.00,3095.0000
13408,0.00,0.00,0.00,0,1.588,1.679,-0.267,-0.098,-0.134,0.991,41.33,1186.00,677.00,-892.00,3101.0000
13457,0.00,0.00,0.00,0,1.634,1.695,-0.260,-0.100,-0.129,0.989,41.32,1176.00,662.00,-887.00,3098.0000
13497,0.00,0.00,0.00,0,1.634,1.573,-0.168,-0.096,-0.135,0.991,41.32,1183.00,680.00,-887.00,3099.0000
13525,0.00,0.00,0.00,0,1.611,1.588,-0.237,-0.097,-0.132,0.988,41.32,1183.00,685.00,-897.00,3096.0000
13554,0.00,0.00,0.00,0,1.634,1.649,-0.298,-0.098,-0.136,0.986,41.32,1188.00,682.00,-882.00,3101.0000
13582,0.00,0.00,0.00,0,1.672,1.626,-0.229,-0.092,-0.131,0.988,41.34,1178.00,675.00,-892.00,3098.0000
13616,0.00,0.00,0.00,0,1.641,1.687,-0.229,-0.100,-0.134,0.993,41.33,1186.00,675.00,-885.00,3098.0000
13645,0.00,0.00,0.00,0,1.641,1.595,-0.290,-0.097,-0.133,0.988,41.33,1196.00,677.00,-892.00,3099.0000
13673,0.00,0.00,0.00,0,1.634,1.595,-0.267,-0.098,-0.131,0.993,41.33,1186.00,675.00,-892.00,3099.0000
13702,0.00,0.00,0.00,0,1.656,1.641,-0.237,-0.097,-0.131,0.993,41.33,1186.00,677.00,-902.00,3098.0000
13731,0.00,0.00,0.00,0,1.649,1.611,-0.229,-0.098,-0.133,0.989,41.34,1188.00,687.00,-877.00,3100.0000
13764,0.00,0.00,0.00,0,1.626,1.679,-0.313,-0.098,-0.134,0.990,41.32,1178.00,680.00,-897.00,3096.0000
13793,0.00,0.00,0.00,0,1.634,1.664,-0.229,-0.096,-0.133,0.996,41.32,1186.00,675.00,-890.00,3098.0000
13821,0.00,0.00,0.00,0,1.641,1.634,-0.221,-0.094,-0.131,0.988,41.34,1191.00,685.00,-892.00,3099.0000
13850,0.00,0.00,0.00,0,1.603,1.656,-0.229,-0.096,-0.134,0.991,41.34,1193.00,675.00,-887.00,3098.0000
13879,0.00,0.00,0.00,0,1.641,1.618,-0.282,-0.097,-0.134,0.991,41.33,1188.00,701.00,-887.00,3100.0000
13907,0.00,0.00,0.00,0,1.618,1.611,-0.229,-0.101,-0.135,0.993,41.33,1193.00,670.00,-890.00,3097.0000
13941,0.00,0.00,0.00,0,1.611,1.733,-0.191,-0.098,-0.130,0.991,41.33,1188.00,687.00,-890.00,3095.0000
13980,0.00,0.00,0.00,0,1.649,1.626,-0.237,-0.098,-0.131,0.995,41.32,1186.00,685.00,-887.00,3098.0000
14009,0.00,0.00,0.00,0,1.626,1.656,-0.252,-0.095,-0.131,0.993,41.34,1183.00,682.00,-880.00,3098.0000
14037,0.00,0.00,0.00,0,1.618,1.672,-0.221,-0.099,-0.133,0.990,41.33,1186.00,675.00,-895.00,3099.0000
14066,0.00,0.00,0.00,0,1.603,1.618,-0.244,-0.097,-0.134,0.988,41.34,1188.00,692.00,-887.00,3101.0000
14099,0.00,0.00,0.00,0,1.595,1.733,-0.267,-0.099,-0.133,0.996,41.34,1200.00,682.00,-867.00,3099.0000
14128,0.00,0.00,0.00,0,1.649,1.672,-0.260,-0.098,-0.131,0.994,41.33,1193.00,675.00,-875.00,3099.0000
14156,0.00,0.00,0.00,0,1.656,1.611,-0.214,-0.099,-0.133,0.987,41.33,1198.00,672.00,-887.00,3099.0000
14185,0.00,0.00,0.00,0,1.649,1.641,-0.176,-0.095,-0.137,0.997,41.32,1186.00,685.00,-897.00,3099.0000
14214,0.00,0.00,0.00,0,1.710,1.634,-0.267,-0.093,-0.131,0.997,41.32,1188.00,685.00,-877.00,3099.0000
14247,0.00,0.00,0.00,0,1.618,1.611,-0.237,-0.097,-0.136,0.984,41.32,1183.00,677.00,-895.00,3099.0000
14276,0.00,0.00,0.00,0,1.687,1.656,-0.244,-0.097,-0.135,0.991,41.34,1183.00,672.00,-880.00,3097.0000
14306,0.00,0.00,0.00,0,1.672,1.634,-0.237,-0.096,-0.132,0.983,41.32,1186.00,685.00,-890.00,3099.0000
14335,0.00,0.00,0.00,0,1.618,1.641,-0.237,-0.095,-0.132,0.989,41.34,1191.00,662.00,-892.00,3099.0000
14364,0.00,0.00,0.00,0,1.649,1.641,-0.275,-0.094,-0.127,0.985,41.33,1188.00,690.00,-892.00,3099.0000
14398,0.00,0.00,0.00,0,1.634,1.695,-0.275,-0.093,-0.132,0.984,41.33,1186.00,672.00,-892.00,3098.0000
14426,0.00,0.00,0.00,0,1.672,1.542,-0.282,-0.096,-0.136,0.994,41.33,1193.00,690.00,-885.00,3098.0000
14455,0.00,0.00,0.00,0,1.626,1.573,-0.252,-0.098,-0.130,0.992,41.32,1188.00,662.00,-895.00,3095.0000
14484,0.00,0.00,0.00,0,1.611,1.656,-0.214,-0.101,-0.136,0.987,41.32,1198.00,685.00,-885.00,3098.0000
14512,0.00,0.00,0.00,0,1.649,1.565,-0.183,-0.096,-0.132,0.990,41.33,1176.00,682.00,-885.00,3099.0000
14546,0.00,0.00,0.00,0,1.641,1.695,-0.206,-0.095,-0.135,0.990,41.34,1186.00,675.00,-890.00,3098.0000
14575,0.00,0.00,0.00,0,1.679,1.672,-0.191,-0.095,-0.133,0.991,41.33,1173.00,682.00,-892.00,3101.0000
14603,0.00,0.00,0.00,0,1.618,1.603,-0.221,-0.100,-0.130,0.989,41.33,1178.00,677.00,-882.00,3099.0000
14632,0.00,0.00,0.00,0,1.649,1.664,-0.214,-0.098,-0.134,0.986,41.34,1173.00,687.00,-900.00,3095.0000
14661,0.00,0.00,0.00,0,1.687,1.588,-0.267,-0.094,-0.131,0.991,41.32,1188.00,680.00,-900.00,3100.0000
14710,0.00,0.00,0.00,0,1.611,1.511,-0.229,-0.096,-0.131,0.991,41.33,1186.00,680.00,-882.00,3098.0000
14739,0.00,0.00,0.00,0,1.634,1.725,-0.214,-0.101,-0.134,0.995,41.32,1186.00,687.00,-892.00,3099.0000
14767,0.00,0.00,0.00,0,1.618,1.664,-0.267,-0.094,-0.133,0.989,41.34,1188.00,692.00,-880.00,3098.0000
14796,0.00,0.00,0.00,0,1.687,1.481,-0.244,-0.094,-0.136,0.992,41.34,1181.00,675.00,-880.00,3100.0000
14825,0.00,0.00,0.00,0,1.695,1.580,-0.221,-0.095,-0.135,0.993,41.34,1188.00,680.00,-897.00,3100.0000
14858,0.00,0.00,0.00,0,1.687,1.542,-0.229,-0.097,-0.131,0.988,41.34,1181.00,677.00,-902.00,3098.0000
14902,0.00,0.00,0.00,0,1.634,1.565,-0.176,-0.099,-0.129,0.988,41.33,1186.00,682.00,-887.00,3099.0000
14940,0.00,0.00,0.00,0,1.664,1.595,-0.206,-0.091,-0.135,0.992,41.34,1186.00,672.00,-882.00,3099.0000
14969,0.00,0.00,0.00,0,1.626,1.504,-0.191,-0.095,-0.133,0.987,41.33,1178.00,692.00,-892.00,3099.0000
15008,0.00,0.00,0.00,0,1.649,1.656,-0.168,-0.094,-0.136,0.984,41.33,1191.00,685.00,-887.00,3093.0000
15041,0.00,0.00,0.00,0,1.664,1.794,-0.153,-0.100,-0.133,0.996,41.34,1188.00,682.00,-905.00,3102.0000
15070,0.00,0.00,0.00,0,1.634,1.634,-0.183,-0.096,-0.134,0.991,41.32,1181.00,675.00,-895.00,3098.0000
15098,0.00,0.00,0.00,0,1.634,1.573,-0.198,-0.096,-0.130,0.984,41.32,1191.00,680.00,-877.00,3100.0000
15127,0.00,0.00,0.00,0,1.664,1.550,-0.244,-0.093,-0.133,0.984,41.34,1171.00,692.00,-890.00,3100.0000
15156,0.00,0.00,0.00,0,1.641,1.618,-0.252,-0.097,-0.131,0.993,41.33,1186.00,677.00,-895.00,3097.0000
15189,0.00,0.00,0.00,0,1.664,1.618,-0.290,-0.096,-0.134,0.999,41.33,1183.00,662.00,-885.00,3097.0000
15218,0.00,0.00,0.00,0,1.641,1.718,-0.221,-0.099,-0.132,0.990,41.32,1191.00,677.00,-892.00,3095.0000
15247,0.00,0.00,0.00,0,1.603,1.702,-0.267,-0.093,-0.132,0.995,41.33,1178.00,675.00,-892.00,3098.0000
15275,0.00,0.00,0.00,0,1.634,1.603,-0.237,-0.098,-0.133,0.995,41.33,1178.00,687.00,-882.00,3099.0000
15304,0.00,0.00,0.00,0,1.603,1.595,-0.221,-0.097,-0.133,0.991,41.34,1181.00,682.00,-892.00,3098.0000
15337,0.00,0.00,0.00,0,1.656,1.603,-0.221,-0.095,-0.136,0.983,41.33,1171.00,677.00,-890.00,3094.0000
15366,0.00,0.00,0.00,0,1.649,1.626,-0.290,-0.097,-0.129,0.993,41.34,1176.00,682.00,-882.00,3098.0000
15395,0.00,0.00,0.00,0,1.656,1.702,-0.260,-0.100,-0.135,0.990,41.34,1178.00,682.00,-877.00,3098.0000
15423,0.00,0.00,0.00,0,1.702,1.595,-0.244,-0.097,-0.132,0.990,41.33,1178.00,675.00,-877.00,3100.0000
15452,0.00,0.00,0.00,0,1.191,0.069,0.221,-0.108,-0.126,0.990,41.34,1173.00,680.00,-865.00,3099.0000
15485,0.00,0.00,0.00,0,-1.466,-3.702,0.351,-0.108,-0.120,0.993,41.34,1188.00,680.00,-885.00,3097.0000
15514,0.00,0.00,0.00,0,-2.595,-8.206,-0.611,-0.061,-0.203,0.969,41.34,1198.00,687.00,-875.00,3099.0000
15543,0.00,0.00,0.00,0,2.389,8.328,-0.947,-0.130,-0.065,1.059,41.34,1188.00,675.00,-872.00,3102.0000
15571,0.00,0.00,0.00,0,1.412,0.802,-0.359,-0.084,-0.153,0.964,41.33,1207.00,672.00,-875.00,3099.0000
15600,0.00,0.00,0.00,0,1.176,2.809,-0.695,-0.077,-0.153,0.955,41.33,1196.00,682.00,-875.00,3098.0000
15633,0.00,0.00,0.00,0,1.634,4.038,-0.969,-0.102,-0.149,1.005,41.35,1207.00,682.00,-867.00,3098.0000
15662,0.00,0.00,0.00,0,1.954,1.992,-0.748,-0.087,-0.126,0.984,41.34,1183.00,677.00,-877.00,3099.0000
15691,0.00,0.00,0.00,0,2.084,2.595,-0.366,-0.098,-0.143,0.998,41.33,1178.00,672.00,-877.00,3095.0000
15719,0.00,0.00,0.00,0,2.496,2.137,-0.282,-0.088,-0.127,0.994,41.34,1181.00,672.00,-877.00,3097.0000
15748,0.00,0.00,0.00,0,2.015,2.557,-0.321,-0.096,-0.131,0.998,41.34,1193.00,680.00,-877.00,3101.0000
15781,0.00,0.00,0.00,0,1.282,0.786,-0.305,-0.092,-0.092,1.005,41.34,1168.00,682.00,-880.00,3099.0000
15810,0.00,0.00,0.00,0,-1.115,1.634,-1.466,-0.084,-0.173,0.971,41.34,1193.00,685.00,-882.00,3094.0000
15839,0.00,0.00,0.00,0,2.244,5.466,-0.382,-0.119,-0.138,1.003,41.35,1181.00,680.00,-882.00,3099.0000
15867,0.00,0.00,0.00,0,2.443,0.573,-0.611,-0.060,-0.135,0.990,41.33,1171.00,682.00,-877.00,3097.0000
15896,0.00,0.00,0.00,0,1.611,3.756,-0.221,-0.108,-0.145,1.000,41.34,1188.00,685.00,-890.00,3099.0000
15945,0.00,0.00,0.00,0,0.977,1.771,-0.015,-0.111,-0.154,0.978,41.33,1178.00,685.00,-882.00,3095.0000
15974,0.00,0.00,0.00,0,2.023,1.298,-0.313,-0.088,-0.132,0.985,41.33,1173.00,685.00,-885.00,3099.0000
16015,0.00,0.00,0.00,0,1.656,1.252,-0.244,-0.094,-0.131,0.994,41.33,1186.00,685.00,-875.00,3101.0000
16148,0.00,0.00,0.00,0,1.412,2.397,-0.260,-0.098,-0.147,1.062,41.33,1173.00,698.00,-882.00,3098.0000
16276,0.00,0.00,0.00,0,1.550,1.527,-0.305,-0.087,-0.141,0.981,41.33,1176.00,680.00,-862.00,3101.0000
16475,0.00,0.00,0.00,0,1.626,1.840,-0.183,-0.101,-0.135,1.010,41.34,1188.00,685.00,-877.00,3099.0000
16603,0.00,0.00,0.00,0,1.573,1.481,-0.229,-0.094,-0.141,0.986,41.33,1173.00,698.00,-895.00,3102.0000
16732,0.00,0.00,0.00,0,1.649,1.664,-0.252,-0.089,-0.137,0.986,41.34,1181.00,665.00,-880.00,3094.0000
16847,0.00,0.00,0.00,0,1.641,1.580,-0.198,-0.096,-0.137,0.994,41.34,1183.00,685.00,-877.00,3099.0000
16876,0.00,0.00,0.00,0,1.679,1.695,-0.237,-0.100,-0.140,1.000,41.35,1188.00,685.00,-872.00,3093.0000
16905,0.00,0.00,0.00,0,1.649,1.580,-0.237,-0.094,-0.131,0.983,41.33,1181.00,690.00,-875.00,3095.0000
16939,0.00,0.00,0.00,0,1.603,1.695,-0.229,-0.099,-0.133,0.989,41.34,1191.00,685.00,-882.00,3099.0000
16967,0.00,0.00,0.00,0,1.649,1.504,-0.260,-0.091,-0.132,0.974,41.35,1186.00,680.00,-877.00,3099.0000
16996,0.00,0.00,0.00,0,1.557,1.786,-0.191,-0.095,-0.142,1.008,41.34,1178.00,682.00,-875.00,3098.0000
17035,0.00,0.00,0.00,0,1.618,1.626,-0.260,-0.093,-0.133,0.992,41.35,1181.00,680.00,-895.00,3098.0000
17064,0.00,0.00,0.00,0,1.641,1.710,-0.191,-0.094,-0.138,1.000,41.34,1186.00,687.00,-870.00,3097.0000
17098,0.00,0.00,0.00,0,1.611,1.733,-0.221,-0.096,-0.134,1.005,41.34,1183.00,672.00,-885.00,3097.0000
17126,0.00,0.00,0.00,0,1.634,1.595,-0.206,-0.096,-0.135,0.989,41.34,1173.00,690.00,-885.00,3098.0000
17155,0.00,0.00,0.00,0,1.672,1.603,-0.282,-0.097,-0.131,0.990,41.34,1181.00,682.00,-882.00,3101.0000
17184,0.00,0.00,0.00,0,1.565,1.649,-0.191,-0.099,-0.138,0.993,41.35,1173.00,682.00,-895.00,3095.0000
17234,0.00,0.00,0.00,0,1.672,1.580,-0.237,-0.095,-0.137,0.993,41.34,1186.00,682.00,-885.00,3099.0000
17268,0.00,0.00,0.00,0,1.649,1.626,-0.237,-0.095,-0.136,0.995,41.35,1176.00,685.00,-882.00,3097.0000
17297,0.00,0.00,0.00,0,1.649,1.634,-0.183,-0.096,-0.133,0.983,41.35,1183.00,672.00,-860.00,3099.0000
17326,0.00,0.00,0.00,0,1.687,1.595,-0.137,-0.106,-0.128,0.982,41.34,1178.00,677.00,-890.00,3098.0000
17354,0.00,0.00,0.00,0,1.504,1.763,-0.229,-0.085,-0.145,0.995,41.34,1191.00,680.00,-882.00,3098.0000
17383,0.00,0.00,0.00,0,1.763,1.679,-0.252,-0.106,-0.125,1.001,41.34,1176.00,682.00,-877.00,3098.0000
17417,0.00,0.00,0.00,0,1.687,1.718,-0.176,-0.096,-0.122,0.990,41.34,1160.00,690.00,-885.00,3098.0000
17446,0.00,0.00,0.00,0,1.687,1.557,-0.260,-0.093,-0.136,0.985,41.34,1183.00,698.00,-865.00,3099.0000
17474,0.00,0.00,0.00,0,1.664,1.748,-0.214,-0.101,-0.133,0.991,41.35,1188.00,692.00,-880.00,3099.0000
17503,0.00,0.00,0.00,0,1.626,1.618,-0.221,-0.092,-0.138,0.979,41.36,1186.00,695.00,-875.00,3094.0000
17532,0.00,0.00,0.00,0,1.641,1.611,-0.214,-0.098,-0.130,1.001,41.34,1183.00,685.00,-882.00,3095.0000
17566,0.00,0.00,0.00,0,1.595,1.641,-0.229,-0.097,-0.135,0.988,41.35,1193.00,680.00,-882.00,3095.0000
17594,0.00,0.00,0.00,0,1.649,1.611,-0.267,-0.097,-0.137,0.994,41.34,1181.00,672.00,-877.00,3097.0000
17623,0.00,0.00,0.00,0,1.611,1.588,-0.260,-0.091,-0.132,0.989,41.34,1171.00,685.00,-875.00,3099.0000
17652,0.00,0.00,0.00,0,1.580,1.672,-0.244,-0.102,-0.134,0.997,41.34,1188.00,695.00,-877.00,3098.0000
17681,0.00,0.00,0.00,0,1.588,1.626,-0.252,-0.092,-0.138,0.986,41.34,1183.00,685.00,-887.00,3099.0000
17715,0.00,0.00,0.00,0,1.618,1.580,-0.229,-0.096,-0.139,0.991,41.35,1183.00,687.00,-862.00,3095.0000
17743,0.00,0.00,0.00,0,1.634,1.618,-0.229,-0.093,-0.138,0.985,41.35,1183.00,682.00,-895.00,3095.0000
17772,0.00,0.00,0.00,0,1.618,1.656,-0.206,-0.098,-0.129,0.989,41.35,1168.00,687.00,-880.00,3096.0000
17801,0.00,0.00,0.00,0,1.672,1.687,-0.191,-0.096,-0.138,0.993,41.34,1186.00,690.00,-872.00,3099.0000
17830,0.00,0.00,0.00,0,1.649,1.603,-0.237,-0.096,-0.133,0.989,41.35,1191.00,698.00,-882.00,3098.0000
17879,0.00,0.00,0.00,0,1.695,1.580,-0.221,-0.093,-0.135,0.984,41.34,1183.00,680.00,-887.00,3100.0000
17919,0.00,0.00,0.00,0,1.649,1.565,-0.237,-0.102,-0.141,0.998,41.34,1191.00,680.00,-877.00,3099.0000
17948,0.00,0.00,0.00,0,1.656,1.687,-0.198,-0.097,-0.132,0.984,41.34,1196.00,682.00,-885.00,3097.0000
17977,0.00,0.00,0.00,0,1.679,1.679,-0.221,-0.100,-0.129,0.995,41.34,1178.00,685.00,-882.00,3095.0000
18006,0.00,0.00,0.00,0,1.664,1.687,-0.267,-0.096,-0.134,0.987,41.34,1181.00,685.00,-880.00,3098.0000
18050,0.00,0.00,0.00,0,1.573,1.603,-0.229,-0.094,-0.142,0.993,41.34,1188.00,687.00,-862.00,3097.0000
18079,0.00,0.00,0.00,0,1.641,1.672,-0.145,-0.096,-0.134,0.993,41.35,1186.00,690.00,-875.00,3098.0000
18108,0.00,0.00,0.00,0,1.656,1.504,-0.244,-0.098,-0.137,0.991,41.35,1176.00,687.00,-882.00,3098.0000
18136,0.00,0.00,0.00,0,1.603,1.710,-0.244,-0.095,-0.138,0.988,41.34,1173.00,680.00,-890.00,3097.0000
18165,0.00,0.00,0.00,0,1.626,1.641,-0.221,-0.097,-0.133,0.988,41.35,1178.00,687.00,-887.00,3098.0000
18199,0.00,0.00,0.00,0,1.634,1.611,-0.206,-0.092,-0.132,0.988,41.34,1191.00,670.00,-877.00,3100.0000
18228,0.00,0.00,0.00,0,1.595,1.679,-0.214,-0.098,-0.137,0.993,41.35,1191.00,690.00,-877.00,3100.0000
18257,0.00,0.00,0.00,0,1.634,1.595,-0.221,-0.096,-0.134,0.990,41.35,1181.00,692.00,-867.00,3099.0000
18285,0.00,0.00,0.00,0,1.588,1.611,-0.237,-0.098,-0.138,0.992,41.35,1173.00,697.00,-882.00,3099.0000
18314,0.00,0.00,0.00,0,1.626,1.618,-0.237,-0.096,-0.134,0.989,41.35,1191.00,680.00,-877.00,3098.0000
18348,0.00,0.00,0.00,0,1.634,1.618,-0.229,-0.094,-0.137,0.987,41.35,1188.00,675.00,-882.00,3099.0000
18377,0.00,0.00,0.00,0,1.611,1.679,-0.252,-0.092,-0.137,0.986,41.34,1178.00,687.00,-875.00,3099.0000
18406,0.00,0.00,0.00,0,1.649,1.634,-0.191,-0.095,-0.138,0.994,41.34,1178.00,695.00,-875.00,3099.0000
18437,0.00,0.00,0.00,0,1.664,1.603,-0.221,-0.095,-0.137,0.989,41.34,1181.00,685.00,-892.00,3095.0000
18466,0.00,0.00,0.00,0,1.695,1.664,-0.237,-0.098,-0.133,0.988,41.34,1178.00,687.00,-882.00,3099.0000
18500,0.00,0.00,0.00,0,1.634,1.634,-0.168,-0.097,-0.138,0.986,41.35,1183.00,701.00,-882.00,3095.0000
18529,0.00,0.00,0.00,0,1.641,1.672,-0.198,-0.096,-0.138,0.993,41.35,1193.00,675.00,-877.00,3099.0000
18558,0.00,0.00,0.00,0,1.588,1.695,-0.176,-0.100,-0.137,1.008,41.34,1173.00,687.00,-885.00,3098.0000
18587,0.00,0.00,0.00,0,1.595,1.580,-0.176,-0.095,-0.132,0.990,41.35,1181.00,695.00,-880.00,3097.0000
18616,0.00,0.00,0.00,0,1.618,1.611,-0.214,-0.095,-0.133,0.988,41.34,1176.00,685.00,-880.00,3095.0000
18649,0.00,0.00,0.00,0,1.580,1.603,-0.206,-0.085,-0.136,0.968,41.34,1191.00,685.00,-877.00,3095.0000
18678,0.00,0.00,0.00,0,1.626,1.557,-0.229,-0.099,-0.136,0.982,41.34,1181.00,687.00,-872.00,3094.0000
18707,0.00,0.00,0.00,0,1.595,1.740,-0.282,-0.093,-0.143,0.995,41.35,1186.00,682.00,-880.00,3097.0000
18736,0.00,0.00,0.00,0,1.656,1.626,-0.252,-0.095,-0.138,0.998,41.33,1188.00,697.00,-887.00,3099.0000
18765,0.00,0.00,0.00,0,1.664,1.672,-0.206,-0.100,-0.131,0.985,41.34,1167.00,685.00,-885.00,3096.0000
18799,0.00,0.00,0.00,0,1.679,1.710,-0.221,-0.096,-0.128,0.997,41.34,1181.00,685.00,-880.00,3097.0000
18828,0.00,0.00,0.00,0,1.679,1.649,-0.221,-0.095,-0.136,0.989,41.34,1168.00,675.00,-875.00,3097.0000
18857,0.00,0.00,0.00,0,1.664,1.664,-0.168,-0.094,-0.130,0.985,41.35,1188.00,687.00,-880.00,3095.0000
18886,0.00,0.00,0.00,0,1.618,1.687,-0.206,-0.096,-0.141,0.991,41.33,1173.00,690.00,-872.00,3095.0000
18935,0.00,0.00,0.00,0,1.672,1.725,-0.153,-0.098,-0.133,0.998,41.34,1178.00,675.00,-872.00,3094.0000
18969,0.00,0.00,0.00,0,1.641,1.718,-0.275,-0.094,-0.132,0.997,41.34,1178.00,680.00,-872.00,3095.0000
18998,0.00,0.00,0.00,0,1.695,1.672,-0.237,-0.096,-0.135,0.993,41.34,1183.00,682.00,-880.00,3101.0000
19027,0.00,0.00,0.00,0,1.634,1.710,-0.237,-0.095,-0.137,0.990,41.34,1193.00,687.00,-890.00,3097.0000
19066,0.00,0.00,0.00,0,1.718,1.702,-0.214,-0.094,-0.134,0.990,41.34,1191.00,690.00,-875.00,3098.0000
19095,0.00,0.00,0.00,0,1.702,1.672,-0.183,-0.096,-0.139,0.993,41.34,1176.00,677.00,-882.00,3100.0000
19124,0.00,0.00,0.00,0,1.664,1.321,-0.145,-0.093,-0.133,0.993,41.33,1183.00,695.00,-882.00,3101.0000
19173,0.00,0.00,0.00,0,1.756,1.046,-0.137,-0.092,-0.135,0.986,41.33,1183.00,680.00,-877.00,3101.0000
19213,0.00,0.00,0.00,0,1.634,1.481,-0.260,-0.094,-0.136,0.991,41.35,1176.00,687.00,-887.00,3097.0000
19242,0.00,0.00,0.00,0,1.595,1.832,-0.237,-0.098,-0.132,1.000,41.34,1168.00,680.00,-885.00,3101.0000
19271,0.00,0.00,0.00,0,1.725,1.405,-0.191,-0.097,-0.136,0.995,41.34,1183.00,682.00,-882.00,3099.0000
19300,0.00,0.00,0.00,0,1.756,0.260,0.611,-0.101,-0.143,0.996,41.34,1178.00,685.00,-877.00,3099.0000
19334,0.00,0.00,0.00,0,2.542,-2.053,2.168,-0.093,-0.134,0.996,41.34,1181.00,695.00,-882.00,3099.0000
19363,0.00,0.00,0.00,0,2.756,-1.588,2.924,-0.085,-0.128,1.003,41.34,1171.00,692.00,-887.00,3097.0000
19392,0.00,0.00,0.00,0,1.756,0.595,1.374,-0.074,-0.084,0.992,41.33,1176.00,687.00,-875.00,3100.0000
19421,0.00,0.00,0.00,0,-0.977,2.855,-0.099,-0.098,-0.184,0.980,41.35,1168.00,680.00,-885.00,3099.0000
19450,0.00,0.00,0.00,0,1.809,0.565,-0.519,-0.065,-0.129,0.972,41.34,1183.00,690.00,-887.00,3098.0000
19483,0.00,0.00,0.00,0,1.336,3.237,-0.649,-0.097,-0.133,0.978,41.34,1183.00,701.00,-882.00,3098.0000
19512,0.00,0.00,0.00,0,1.870,3.176,-0.901,-0.094,-0.132,0.990,41.36,1191.00,697.00,-885.00,3099.0000
19541,0.00,0.00,0.00,0,1.511,3.023,-1.023,-0.084,-0.125,0.988,41.34,1176.00,677.00,-897.00,3099.0000
19570,0.00,0.00,0.00,0,1.191,5.557,-1.511,-0.063,-0.115,0.988,41.34,1181.00,690.00,-887.00,3098.0000
19599,0.00,0.00,0.00,0,-0.573,8.076,0.954,-0.073,-0.102,0.978,41.34,1178.00,680.00,-885.00,3099.0000
19633,0.00,0.00,0.00,0,-2.687,12.397,5.427,-0.107,-0.129,1.007,41.36,1173.00,675.00,-892.00,3098.0000
19662,0.00,0.00,0.00,0,-3.519,10.023,7.779,-0.160,-0.209,0.972,41.35,1186.00,662.00,-885.00,3095.0000
19691,0.00,0.00,0.00,0,1.038,2.779,1.473,-0.136,-0.150,0.988,41.36,1200.00,665.00,-882.00,3095.0000
19720,0.00,0.00,0.00,0,2.939,-1.985,-0.603,-0.075,-0.135,0.981,41.34,1186.00,658.00,-887.00,3098.0000
19749,0.00,0.00,0.00,0,1.443,3.115,-0.313,-0.124,-0.154,1.001,41.34,1181.00,670.00,-900.00,3098.0000
19783,0.00,0.00,0.00,0,3.115,-0.489,-1.412,-0.095,-0.130,0.988,41.34,1191.00,658.00,-882.00,3099.0000
19812,0.00,0.00,0.00,0,2.321,1.145,-0.725,-0.102,-0.135,0.985,41.35,1186.00,653.00,-887.00,3098.0000
19841,0.00,0.00,0.00,0,1.924,1.687,-0.191,-0.113,-0.137,0.994,41.35,1191.00,662.00,-880.00,3099.0000
19870,0.00,0.00,0.00,0,2.008,1.695,-0.122,-0.108,-0.140,0.983,41.34,1186.00,660.00,-902.00,3095.0000
19899,0.00,0.00,0.00,0,2.130,0.947,-0.076,-0.111,-0.150,0.980,41.37,1193.00,660.00,-877.00,3099.0000
19933,0.00,0.00,0.00,0,2.015,0.878,-0.458,-0.095,-0.133,0.978,41.35,1193.00,665.00,-880.00,3099.0000
19962,0.00,0.00,0.00,0,1.550,1.855,-0.214,-0.116,-0.142,0.995,41.34,1186.00,687.00,-887.00,3097.0000
19991,0.00,0.00,0.00,0,1.718,1.496,-0.420,-0.097,-0.125,0.984,41.36,1198.00,672.00,-900.00,3097.0000
20019,0.00,0.00,0.00,0,1.573,1.687,-0.366,-0.101,-0.143,0.990,41.33,1202.00,665.00,-880.00,3098.0000
20049,0.00,0.00,0.00,0,1.542,1.702,-0.344,-0.103,-0.140,0.982,41.34,1188.00,675.00,-882.00,3097.0000
20093,0.00,0.00,0.00,0,1.351,1.748,-0.840,-0.108,-0.137,0.981,41.36,1173.00,660.00,-882.00,3098.0000
20122,0.00,0.00,0.00,0,0.885,2.710,-1.122,-0.104,-0.142,0.987,41.35,1186.00,665.00,-882.00,3098.0000
20151,0.00,0.00,0.00,0,1.504,2.595,-0.664,-0.113,-0.142,0.990,41.35,1193.00,667.00,-877.00,3098.0000
20180,0.00,0.00,0.00,0,1.817,1.718,-0.282,-0.106,-0.139,0.980,41.36,1193.00,667.00,-882.00,3098.0000
20211,0.00,0.00,0.00,0,1.931,1.802,-0.214,-0.107,-0.132,0.985,41.33,1193.00,662.00,-887.00,3099.0000
20244,0.00,0.00,0.00,0,1.786,1.840,-0.206,-0.104,-0.140,0.980,41.35,1188.00,670.00,-902.00,3095.0000
20273,0.00,0.00,0.00,0,1.885,2.206,-0.206,-0.113,-0.135,0.996,41.36,1193.00,677.00,-890.00,3095.0000
20302,0.00,0.00,0.00,0,1.763,2.061,-0.206,-0.105,-0.145,0.991,41.35,1196.00,675.00,-885.00,3095.0000
20331,0.00,0.00,0.00,0,2.053,1.702,0.000,-0.112,-0.136,0.991,41.34,1200.00,675.00,-892.00,3095.0000
20359,0.00,0.00,0.00,0,2.221,1.130,0.252,-0.114,-0.139,0.988,41.36,1186.00,658.00,-892.00,3095.0000
20409,0.00,0.00,0.00,0,2.061,0.466,0.443,-0.110,-0.138,0.993,41.37,1183.00,667.00,-885.00,3099.0000
20438,0.00,0.00,0.00,0,2.901,-0.618,0.771,-0.105,-0.147,0.984,41.35,1196.00,672.00,-895.00,3099.0000
20466,0.00,0.00,0.00,0,2.924,0.588,-0.282,-0.093,-0.118,0.996,41.36,1188.00,680.00,-897.00,3097.0000
20495,0.00,0.00,0.00,0,1.649,2.313,-0.122,-0.120,-0.140,0.985,41.36,1186.00,667.00,-900.00,3099.0000
20524,0.00,0.00,0.00,0,1.824,1.099,-0.282,-0.096,-0.134,0.986,41.36,1191.00,670.00,-900.00,3095.0000
20557,0.00,0.00,0.00,0,1.611,1.824,-0.267,-0.111,-0.141,0.985,41.36,1178.00,667.00,-875.00,3095.0000
20600,0.00,0.00,0.00,0,1.618,1.763,-0.191,-0.106,-0.135,0.984,41.36,1176.00,670.00,-892.00,3099.0000
20629,0.00,0.00,0.00,0,1.672,1.466,-0.260,-0.100,-0.137,0.983,41.36,1193.00,680.00,-897.00,3097.0000
20658,0.00,0.00,0.00,0,1.595,1.756,-0.290,-0.106,-0.137,0.989,41.36,1173.00,662.00,-890.00,3095.0000
20687,0.00,0.00,0.00,0,1.710,1.580,-0.252,-0.106,-0.133,0.986,41.35,1196.00,672.00,-890.00,3098.0000
20721,0.00,0.00,0.00,0,1.634,1.702,-0.214,-0.109,-0.140,0.985,41.34,1178.00,670.00,-882.00,3099.0000
20749,0.00,0.00,0.00,0,1.656,1.672,-0.237,-0.104,-0.136,0.989,41.34,1191.00,680.00,-900.00,3099.0000
20778,0.00,0.00,0.00,0,1.656,1.649,-0.191,-0.106,-0.133,0.989,41.33,1193.00,680.00,-892.00,3100.0000
20807,0.00,0.00,0.00,0,1.649,1.664,-0.176,-0.104,-0.139,0.986,41.35,1188.00,670.00,-892.00,3100.0000
20836,0.00,0.00,0.00,0,1.687,1.672,-0.267,-0.106,-0.136,0.996,41.35,1186.00,660.00,-897.00,3099.0000
20870,0.00,0.00,0.00,0,1.664,1.565,-0.221,-0.105,-0.139,0.988,41.35,1202.00,670.00,-887.00,3099.0000
20898,0.00,0.00,0.00,0,1.702,1.649,-0.214,-0.107,-0.137,0.985,41.35,1198.00,665.00,-900.00,3099.0000
20927,0.00,0.00,0.00,0,1.679,1.672,-0.206,-0.104,-0.138,0.987,41.35,1188.00,677.00,-897.00,3098.0000
20956,0.00,0.00,0.00,0,1.595,1.664,-0.237,-0.106,-0.133,0.982,41.36,1188.00,665.00,-902.00,3097.0000
20985,0.00,0.00,0.00,0,1.595,1.649,-0.206,-0.102,-0.137,0.988,41.36,1176.00,677.00,-917.00,3097.0000
21018,0.00,0.00,0.00,0,1.626,1.656,-0.252,-0.107,-0.139,0.993,41.35,1198.00,675.00,-892.00,3095.0000
21047,0.00,0.00,0.00,0,1.588,1.672,-0.282,-0.128,-0.146,1.035,41.35,1176.00,670.00,-897.00,3098.0000
21076,0.00,0.00,0.00,0,1.481,1.534,-0.252,-0.090,-0.143,0.983,41.34,1183.00,660.00,-895.00,3099.0000
21115,0.00,0.00,0.00,0,1.481,1.687,-0.168,-0.090,-0.145,0.975,41.35,1183.00,662.00,-895.00,3097.0000
21144,0.00,0.00,0.00,0,1.702,1.504,-0.244,-0.110,-0.134,0.989,41.36,1183.00,672.00,-902.00,3099.0000
21178,0.00,0.00,0.00,0,1.679,1.710,-0.328,-0.108,-0.126,1.007,41.36,1183.00,677.00,-892.00,3097.0000
21206,0.00,0.00,0.00,0,1.656,1.687,-0.214,-0.110,-0.142,0.993,41.36,1188.00,672.00,-897.00,3097.0000
21235,0.00,0.00,0.00,0,1.649,1.641,-0.244,-0.108,-0.137,0.995,41.36,1183.00,665.00,-882.00,3099.0000
21264,0.00,0.00,0.00,0,1.603,1.641,-0.214,-0.103,-0.138,0.981,41.36,1191.00,667.00,-912.00,3095.0000
21293,0.00,0.00,0.00,0,1.656,1.611,-0.275,-0.111,-0.133,0.997,41.37,1193.00,665.00,-892.00,3098.0000
21326,0.00,0.00,0.00,0,1.649,1.641,-0.176,-0.105,-0.142,0.990,41.35,1196.00,667.00,-890.00,3095.0000
21355,0.00,0.00,0.00,0,1.618,1.595,-0.160,-0.109,-0.137,0.988,41.36,1191.00,660.00,-897.00,3100.0000
21384,0.00,0.00,0.00,0,1.641,1.626,-0.214,-0.106,-0.135,0.994,41.35,1183.00,665.00,-900.00,3099.0000
21413,0.00,0.00,0.00,0,1.626,1.679,-0.244,-0.108,-0.135,0.995,41.36,1173.00,670.00,-885.00,3095.0000
21441,0.00,0.00,0.00,0,1.595,1.618,-0.221,-0.104,-0.140,0.981,41.36,1188.00,660.00,-905.00,3095.0000
21470,0.00,0.00,0.00,0,1.672,1.649,-0.237,-0.108,-0.136,0.987,41.35,1193.00,662.00,-900.00,3099.0000
21504,0.00,0.00,0.00,0,1.611,1.664,-0.237,-0.110,-0.138,0.996,41.36,1196.00,675.00,-892.00,3098.0000
21533,0.00,0.00,0.00,0,1.641,1.588,-0.221,-0.108,-0.133,0.989,41.36,1181.00,670.00,-902.00,3097.0000
21561,0.00,0.00,0.00,0,1.641,1.656,-0.214,-0.103,-0.138,0.987,41.37,1173.00,662.00,-890.00,3102.0000
21590,0.00,0.00,0.00,0,1.595,1.603,-0.252,-0.104,-0.133,0.984,41.36,1200.00,662.00,-890.00,3097.0000
21619,0.00,0.00,0.00,0,1.611,1.718,-0.221,-0.103,-0.136,0.985,41.36,1193.00,665.00,-900.00,3098.0000
21668,0.00,0.00,0.00,0,1.710,1.687,-0.229,-0.110,-0.136,0.987,41.37,1198.00,680.00,-900.00,3099.0000
21697,0.00,0.00,0.00,0,1.687,1.611,-0.275,-0.102,-0.137,0.983,41.37,1183.00,662.00,-895.00,3095.0000
21726,0.00,0.00,0.00,0,1.679,1.702,-0.198,-0.105,-0.135,0.995,41.37,1176.00,660.00,-910.00,3099.0000
21755,0.00,0.00,0.00,0,1.649,1.672,-0.260,-0.104,-0.135,0.985,41.36,1183.00,667.00,-892.00,3097.0000
21784,0.00,0.00,0.00,0,1.588,1.695,-0.191,-0.105,-0.136,0.992,41.36,1176.00,677.00,-892.00,3098.0000
21817,0.00,0.00,0.00,0,1.634,1.695,-0.221,-0.103,-0.136,0.989,41.36,1196.00,667.00,-890.00,3099.0000
21846,0.00,0.00,0.00,0,1.725,1.649,-0.221,-0.109,-0.134,0.990,41.36,1188.00,653.00,-912.00,3095.0000
21875,0.00,0.00,0.00,0,1.672,1.656,-0.229,-0.104,-0.137,0.984,41.36,1183.00,667.00,-892.00,3098.0000
21904,0.00,0.00,0.00,0,1.664,1.672,-0.160,-0.103,-0.137,0.991,41.36,1186.00,665.00,-905.00,3098.0000
21935,0.00,0.00,0.00,0,1.656,1.672,-0.237,-0.104,-0.143,0.986,41.37,1191.00,662.00,-895.00,3097.0000
21969,0.00,0.00,0.00,0,1.664,1.557,-0.183,-0.108,-0.136,0.990,41.35,1200.00,680.00,-887.00,3101.0000
21998,0.00,0.00,0.00,0,1.718,1.656,-0.160,-0.106,-0.135,0.989,41.34,1200.00,670.00,-897.00,3096.0000
22027,0.00,0.00,0.00,0,1.718,1.656,-0.176,-0.108,-0.135,0.995,41.36,1186.00,670.00,-902.00,3094.0000
22056,0.00,0.00,0.00,0,1.618,1.603,-0.214,-0.104,-0.136,0.989,41.35,1196.00,672.00,-902.00,3096.0000
22086,0.00,0.00,0.00,0,1.634,1.603,-0.214,-0.111,-0.139,0.996,41.37,1168.00,660.00,-902.00,3099.0000
22130,0.00,0.00,0.00,0,1.679,1.634,-0.267,-0.106,-0.140,0.993,41.37,1181.00,672.00,-900.00,3099.0000
22159,0.00,0.00,0.00,0,1.656,1.634,-0.305,-0.110,-0.138,0.993,41.37,1183.00,660.00,-912.00,3099.0000
22188,0.00,0.00,0.00,0,1.580,1.588,-0.290,-0.105,-0.134,0.982,41.37,1193.00,672.00,-900.00,3098.0000
22216,0.00,0.00,0.00,0,1.618,1.641,-0.275,-0.104,-0.133,0.990,41.37,1188.00,658.00,-905.00,3100.0000
22245,0.00,0.00,0.00,0,1.527,1.611,-0.260,-0.107,-0.133,0.988,41.36,1188.00,675.00,-892.00,3101.0000
22279,0.00,0.00,0.00,0,1.618,1.618,-0.260,-0.108,-0.135,0.990,41.37,1183.00,665.00,-905.00,3098.0000
22347,0.00,0.00,0.00,0,1.260,0.519,-0.160,-0.104,-0.145,0.981,41.37,1191.00,660.00,-905.00,3099.0000
22385,0.00,0.00,0.00,0,-6.519,25.855,2.511,-0.128,0.086,1.151,41.37,1193.00,646.00,-905.00,3098.0000
22414,0.00,0.00,0.00,0,-10.397,0.038,7.718,0.101,-0.393,0.641,41.38,1196.00,631.00,-895.00,3093.0000
22443,0.00,0.00,0.00,0,-0.924,8.611,0.237,-0.031,-0.122,0.979,41.37,1193.00,631.00,-900.00,3098.0000
22477,0.00,0.00,0.00,0,1.733,2.725,-2.015,-0.280,-0.135,1.106,41.37,1198.00,648.00,-887.00,3101.0000
22506,0.00,0.00,0.00,0,-2.008,8.244,-0.832,-0.213,-0.191,1.019,41.36,1210.00,633.00,-900.00,3098.0000
22535,0.00,0.00,0.00,0,-0.687,5.802,-0.450,-0.160,-0.132,1.015,41.36,1210.00,636.00,-887.00,3098.0000
22564,0.00,0.00,0.00,0,-1.427,-5.130,1.412,-0.066,-0.199,0.954,41.36,1207.00,628.00,-887.00,3099.0000
22593,0.00,0.00,0.00,0,-0.931,-12.519,2.344,-0.451,0.062,0.960,41.37,1196.00,636.00,-902.00,3098.0000
22627,0.00,0.00,0.00,0,6.084,-36.748,-0.855,0.206,-0.088,0.784,41.35,1207.00,672.00,-887.00,3098.0000
22656,0.00,0.00,0.00,0,1.153,-6.832,0.954,0.063,-0.199,0.908,41.38,1210.00,677.00,-880.00,3095.0000
22685,0.00,0.00,0.00,0,2.534,6.473,-0.038,-0.063,-0.151,0.924,41.36,1210.00,660.00,-900.00,3099.0000
22714,0.00,0.00,0.00,0,3.939,5.244,-0.656,-0.100,-0.153,1.009,41.37,1212.00,658.00,-897.00,3098.0000
22743,0.00,0.00,0.00,0,2.939,3.298,-0.450,-0.138,-0.128,1.013,41.37,1212.00,658.00,-890.00,3105.0000
22777,0.00,0.00,0.00,0,5.710,-2.359,-1.412,-0.098,-0.066,1.039,41.36,1207.00,665.00,-892.00,3099.0000
22806,0.00,0.00,0.00,0,14.962,-17.611,-2.260,-0.044,-0.157,0.921,41.36,1215.00,698.00,-900.00,3098.0000
22835,0.00,0.00,0.00,0,18.069,-26.298,-5.420,-0.045,-0.134,1.042,41.36,1193.00,695.00,-882.00,3099.0000
22864,0.00,0.00,0.00,0,22.328,-38.656,-2.985,-0.072,-0.112,1.097,41.36,1186.00,723.00,-882.00,3098.0000
22893,0.00,0.00,0.00,0,38.305,-69.435,4.985,-0.105,-0.157,1.151,41.35,1168.00,770.00,-880.00,3098.0000
22942,0.00,0.00,0.00,0,62.756,-126.977,-11.649,0.077,-0.112,1.061,41.38,1100.00,907.00,-867.00,3099.0000
22983,0.00,0.00,0.00,0,66.748,-125.786,-19.885,0.186,-0.046,1.027,41.36,1051.00,1005.00,-842.00,3102.0000
23012,0.00,0.00,0.00,0,63.954,-135.092,-29.046,0.204,0.004,0.961,41.37,1011.00,1085.00,-800.00,3098.0000
23040,0.00,0.00,0.00,0,60.595,-114.069,-34.046,0.422,0.007,0.809,41.37,951.00,1137.00,-772.00,3099.0000
23069,0.00,0.00,0.00,0,65.962,-56.084,-32.901,0.358,0.091,0.922,41.37,910.00,1196.00,-752.00,3099.0000
23104,0.00,0.00,0.00,0,69.038,-42.809,-31.840,0.396,0.269,0.894,41.38,861.00,1225.00,-762.00,3098.0000
23143,0.00,0.00,0.00,0,65.099,-34.595,-17.618,0.360,0.157,0.968,41.37,806.00,1258.00,-732.00,3098.0000
23172,0.00,0.00,0.00,0,57.740,-44.763,-16.092,0.333,0.263,0.891,41.35,777.00,1282.00,-710.00,3092.0000
23201,0.00,0.00,0.00,0,49.969,-49.710,-8.038,0.394,0.229,0.896,41.36,746.00,1310.00,-697.00,3098.0000
23230,0.00,0.00,0.00,0,48.832,-49.702,-7.557,0.427,0.256,0.886,41.36,703.00,1318.00,-690.00,3095.0000
23263,0.00,0.00,0.00,0,47.122,-38.267,-8.092,0.476,0.250,0.838,41.37,675.00,1357.00,-660.00,3099.0000
23292,0.00,0.00,0.00,0,47.420,-35.076,-13.076,0.475,0.274,0.856,41.37,641.00,1360.00,-638.00,3095.0000
23321,0.00,0.00,0.00,0,42.802,-38.374,-12.947,0.464,0.342,0.833,41.37,626.00,1395.00,-616.00,3098.0000
23350,0.00,0.00,0.00,0,39.847,-42.740,-9.748,0.511,0.367,0.820,41.37,592.00,1408.00,-618.00,3099.0000
23379,0.00,0.00,0.00,0,33.748,-39.298,-8.397,0.486,0.339,0.794,41.37,607.00,1421.00,-578.00,3099.0000
23413,0.00,0.00,0.00,0,29.710,-29.588,-10.130,0.737,0.487,0.518,41.37,561.00,1442.00,-558.00,3099.0000
23442,0.00,0.00,0.00,0,28.107,-16.053,-13.061,0.653,0.342,0.722,41.39,540.00,1447.00,-556.00,3098.0000
23471,0.00,0.00,0.00,0,28.115,3.412,-20.252,0.684,0.359,0.601,41.37,530.00,1442.00,-538.00,3101.0000
23500,0.00,0.00,0.00,0,35.466,46.565,-21.412,0.494,0.500,0.728,41.37,501.00,1416.00,-581.00,3098.0000
23529,0.00,0.00,0.00,0,37.130,79.916,-31.725,0.528,0.421,0.763,41.37,453.00,1382.00,-618.00,3097.0000
23563,0.00,0.00,0.00,0,23.458,95.954,-34.939,0.409,0.410,0.712,41.37,422.00,1341.00,-672.00,3099.0000
23592,0.00,0.00,0.00,0,18.863,99.992,-36.214,0.330,0.458,0.834,41.37,393.00,1271.00,-697.00,3098.0000
23621,0.00,0.00,0.00,0,5.885,85.496,-36.496,0.295,0.569,0.805,41.37,386.00,1230.00,-742.00,3099.0000
23650,0.00,0.00,0.00,0,2.969,85.771,-38.794,0.323,0.561,0.855,41.37,362.00,1176.00,-772.00,3098.0000
23679,0.00,0.00,0.00,0,1.198,94.656,-39.565,0.204,0.409,0.849,41.37,345.00,1123.00,-792.00,3098.0000
23715,0.00,0.00,0.00,0,8.550,110.305,-51.328,0.168,0.611,0.954,41.37,326.00,1052.00,-847.00,3099.0000
23744,0.00,0.00,0.00,0,7.672,91.779,-42.634,0.120,0.511,0.794,41.38,295.00,977.00,-887.00,3097.0000
23773,0.00,0.00,0.00,0,14.496,86.374,-36.710,0.090,0.437,0.840,41.37,277.00,931.00,-897.00,3094.0000
23802,0.00,0.00,0.00,0,16.008,116.885,-40.779,-0.022,0.434,0.876,41.37,271.00,837.00,-925.00,3099.0000
23830,0.00,0.00,0.00,0,15.214,127.046,-46.435,-0.144,0.582,0.858,41.37,242.00,767.00,-942.00,3095.0000
23864,0.00,0.00,0.00,0,10.893,107.985,-37.038,-0.171,0.513,0.805,41.37,211.00,662.00,-968.00,3099.0000
23893,0.00,0.00,0.00,0,6.969,97.885,-28.122,-0.218,0.569,0.870,41.38,193.00,605.00,-976.00,3098.0000
23922,0.00,0.00,0.00,0,2.397,77.847,-19.786,-0.287,0.532,0.781,41.37,198.00,548.00,-986.00,3098.0000
23951,0.00,0.00,0.00,0,-3.153,73.359,-19.863,-0.247,0.536,0.840,41.37,206.00,510.00,-983.00,3101.0000
23980,0.00,0.00,0.00,0,-1.626,65.427,-21.198,-0.299,0.602,0.783,41.37,206.00,465.00,-1001.00,3094.0000
24013,0.00,0.00,0.00,0,-7.282,67.992,-15.916,-0.280,0.431,0.749,41.37,217.00,388.00,-991.00,3097.0000
24044,0.00,0.00,0.00,0,-8.939,86.679,-12.802,-0.368,0.542,0.791,41.38,188.00,355.00,-996.00,3097.0000
24073,0.00,0.00,0.00,0,-16.412,89.718,-10.382,-0.426,0.556,0.814,41.37,211.00,287.00,-1018.00,3099.0000
24102,0.00,0.00,0.00,0,-27.718,68.931,-4.664,-0.445,0.458,0.717,41.36,237.00,248.00,-1003.00,3099.0000
24131,0.00,0.00,0.00,0,-36.473,53.794,-5.557,-0.438,0.414,0.760,41.37,261.00,207.00,-1011.00,3099.0000
24190,0.00,0.00,0.00,0,-58.656,38.809,-5.527,-0.484,0.512,0.787,41.38,337.00,156.00,-1013.00,3099.0000
24230,0.00,0.00,0.00,0,-69.664,35.855,-7.740,-0.474,0.398,0.664,41.37,388.00,106.00,-1021.00,3099.0000
24259,0.00,0.00,0.00,0,-55.496,66.893,-9.885,-0.643,0.409,0.925,41.37,431.00,77.00,-1018.00,3096.0000
24288,0.00,0.00,0.00,0,-54.275,52.687,-7.519,-0.659,0.339,0.863,41.36,480.00,57.00,-1018.00,3098.0000
24317,0.00,0.00,0.00,0,-61.229,17.756,-2.840,-0.562,0.286,0.772,41.36,521.00,33.00,-1003.00,3099.0000
24350,0.00,0.00,0.00,0,-72.664,4.321,0.771,-0.620,0.217,0.806,41.36,568.00,38.00,-1003.00,3099.0000
24379,0.00,0.00,0.00,0,-90.870,0.672,0.519,-0.594,0.244,0.817,41.36,621.00,40.00,-1011.00,3099.0000
24408,0.00,0.00,0.00,0,-112.313,12.061,-0.313,-0.552,0.216,0.809,41.37,703.00,26.00,-996.00,3099.0000
24437,0.00,0.00,0.00,0,-113.832,10.656,0.733,-0.562,0.171,1.032,41.37,766.00,18.00,-983.00,3097.0000
24466,0.00,0.00,0.00,0,-106.695,-15.557,-8.687,-0.495,0.004,0.801,41.37,835.00,38.00,-973.00,3099.0000
24500,0.00,0.00,0.00,0,-92.061,-26.115,-21.763,-0.452,0.059,0.807,41.38,931.00,70.00,-955.00,3099.0000
24529,0.00,0.00,0.00,0,-96.351,-20.718,-27.015,-0.482,0.178,0.793,41.37,991.00,96.00,-930.00,3098.0000
24558,0.00,0.00,0.00,0,-130.969,-7.672,-9.412,-0.554,-0.018,0.789,41.37,1066.00,101.00,-917.00,3098.0000
24587,0.00,0.00,0.00,0,-148.885,-20.901,-14.931,-0.576,-0.310,0.832,41.37,1168.00,117.00,-872.00,3095.0000
24615,0.00,0.00,0.00,0,-132.588,-48.046,-35.573,-0.529,-0.279,0.889,41.37,1262.00,166.00,-830.00,3099.0000
24649,0.00,0.00,0.00,0,-121.618,-51.160,-49.168,-0.381,-0.247,0.753,41.37,1337.00,215.00,-792.00,3099.0000
24678,0.00,0.00,0.00,0,-104.740,-37.893,-41.076,-0.409,-0.281,0.835,41.39,1397.00,248.00,-757.00,3099.0000
24707,0.00,0.00,0.00,0,-93.153,-33.397,-29.214,-0.402,-0.361,1.056,41.37,1443.00,287.00,-722.00,3097.0000
24736,0.00,0.00,0.00,0,-97.656,-30.695,-16.084,-0.341,-0.358,0.842,41.37,1527.00,295.00,-675.00,3094.0000
24765,0.00,0.00,0.00,0,-97.550,-15.328,-8.122,-0.458,-0.406,0.799,41.37,1541.00,316.00,-650.00,3098.0000
24799,0.00,0.00,0.00,0,-95.710,-24.359,-12.351,-0.396,-0.502,0.772,41.38,1590.00,341.00,-581.00,3098.0000
24827,0.00,0.00,0.00,0,-100.015,-39.908,-20.947,-0.347,-0.684,0.753,41.37,1637.00,352.00,-546.00,3099.0000
24856,0.00,0.00,0.00,0,-105.214,-42.168,-32.473,-0.339,-0.665,0.780,41.37,1668.00,385.00,-488.00,3097.0000
24885,0.00,0.00,0.00,0,-104.351,-44.252,-33.557,-0.265,-0.604,0.664,41.37,1717.00,423.00,-441.00,3099.0000
24914,0.00,0.00,0.00,0,-95.206,-28.985,-27.969,-0.324,-0.640,0.600,41.37,1733.00,437.00,-378.00,3098.0000
24948,0.00,0.00,0.00,0,-84.527,-25.046,-35.069,-0.302,-0.708,0.571,41.37,1782.00,483.00,-323.00,3094.0000
24977,0.00,0.00,0.00,0,-72.427,-26.725,-40.855,-0.237,-0.820,0.564,41.35,1788.00,520.00,-270.00,3101.0000
25006,0.00,0.00,0.00,0,-62.794,-41.435,-52.405,-0.124,-0.833,0.586,41.36,1811.00,551.00,-242.00,3099.0000
25035,0.00,0.00,0.00,0,-63.511,-76.206,-59.656,-0.026,-0.746,0.494,41.35,1808.00,602.00,-200.00,3094.0000
25068,0.00,0.00,0.00,0,-60.817,-71.344,-50.176,0.058,-0.684,0.416,41.37,1827.00,658.00,-152.00,3098.0000
25097,0.00,0.00,0.00,0,-45.137,-41.107,-36.046,-1.317,-0.973,1.510,41.37,1835.00,675.00,-120.00,3097.0000
25126,0.00,0.00,0.00,0,-29.710,-39.389,-38.183,-0.239,-0.917,0.624,41.37,1820.00,711.00,-97.00,3102.0000
25156,0.00,0.00,0.00,0,-24.023,-49.046,-44.954,-0.068,-0.860,0.496,41.37,1825.00,737.00,-77.00,3098.0000
25195,0.00,0.00,0.00,0,-5.115,-65.168,-50.053,0.011,-0.854,0.412,41.37,1822.00,808.00,-50.00,3100.0000
25229,0.00,0.00,0.00,0,15.802,-64.519,-54.565,0.160,-0.749,0.417,41.36,1815.00,861.00,-47.00,3098.0000
25257,0.00,0.00,0.00,0,11.763,-30.771,-41.504,0.112,-0.855,0.534,41.37,1793.00,886.00,-50.00,3097.0000
25286,0.00,0.00,0.00,0,23.534,-19.229,-35.115,0.026,-0.914,0.449,41.38,1793.00,897.00,-62.00,3102.0000
25315,0.00,0.00,0.00,0,53.069,-31.412,-46.977,0.082,-0.878,0.470,41.36,1780.00,938.00,-72.00,3098.0000
25344,0.00,0.00,0.00,0,70.489,-45.534,-59.321,0.244,-0.828,0.540,41.36,1743.00,992.00,-97.00,3098.0000
25394,0.00,0.00,0.00,0,66.588,-67.099,-69.473,0.229,-0.749,0.562,41.37,1697.00,1072.00,-125.00,3097.0000
25423,0.00,0.00,0.00,0,55.916,-62.679,-77.466,0.243,-0.714,0.601,41.35,1666.00,1137.00,-125.00,3099.0000
25454,0.00,0.00,0.00,0,44.649,-56.687,-86.122,0.349,-0.688,0.577,41.36,1608.00,1191.00,-120.00,3098.0000
25483,0.00,0.00,0.00,0,43.092,-39.382,-81.550,0.413,-0.567,0.642,41.37,1585.00,1235.00,-115.00,3101.0000
25512,0.00,0.00,0.00,0,48.214,-28.046,-65.221,0.446,-0.655,0.661,41.36,1556.00,1278.00,-150.00,3100.0000
25546,0.00,0.00,0.00,0,57.756,-40.389,-67.534,0.455,-0.609,0.615,41.36,1515.00,1321.00,-155.00,3095.0000
25575,0.00,0.00,0.00,0,49.962,-36.366,-68.443,0.530,-0.517,0.624,41.37,1483.00,1367.00,-145.00,3097.0000
25603,0.00,0.00,0.00,0,37.176,-16.824,-58.473,0.563,-0.519,0.648,41.37,1445.00,1377.00,-142.00,3095.0000
25632,0.00,0.00,0.00,0,28.130,-6.206,-47.076,0.612,-0.518,0.651,41.37,1405.00,1423.00,-152.00,3097.0000
25661,0.00,0.00,0.00,0,15.191,1.008,-31.824,0.606,-0.506,0.695,41.36,1392.00,1426.00,-152.00,3098.0000
25695,0.00,0.00,0.00,0,7.840,-6.344,-22.069,0.584,-0.478,0.716,41.36,1378.00,1433.00,-147.00,3095.0000
25724,0.00,0.00,0.00,0,12.626,-19.176,-21.145,0.621,-0.501,0.697,41.37,1358.00,1447.00,-140.00,3098.0000
25776,0.00,0.00,0.00,0,40.336,-9.504,-16.756,0.585,-0.485,0.664,41.36,1342.00,1460.00,-147.00,3097.0000
25805,0.00,0.00,0.00,0,55.122,-5.328,-19.573,0.582,-0.452,0.690,41.37,1325.00,1470.00,-170.00,3099.0000
25833,0.00,0.00,0.00,0,62.649,11.450,-22.969,0.752,-0.235,0.703,41.37,1280.00,1483.00,-177.00,3095.0000
25867,0.00,0.00,0.00,0,65.305,45.435,-3.786,0.602,-0.383,0.695,41.37,1275.00,1472.00,-240.00,3095.0000
25896,0.00,0.00,0.00,0,82.580,52.863,1.756,0.592,-0.333,0.746,41.37,1267.00,1437.00,-275.00,3095.0000
25925,0.00,0.00,0.00,0,76.855,50.542,8.427,0.552,-0.310,0.777,41.36,1253.00,1421.00,-343.00,3098.0000
25954,0.00,0.00,0.00,0,70.824,49.878,11.298,0.554,-0.316,0.810,41.34,1231.00,1403.00,-373.00,3099.0000
25983,0.00,0.00,0.00,0,77.580,54.145,1.695,0.554,-0.254,0.825,41.35,1210.00,1398.00,-433.00,3098.0000
26017,0.00,0.00,0.00,0,92.481,55.382,0.595,0.449,-0.224,0.858,41.37,1168.00,1362.00,-481.00,3094.0000
26046,0.00,0.00,0.00,0,99.145,41.084,1.534,0.437,-0.209,0.830,41.37,1145.00,1362.00,-523.00,3098.0000
26075,0.00,0.00,0.00,0,93.992,53.794,-0.473,0.507,-0.090,0.870,41.37,1102.00,1326.00,-556.00,3099.0000
26104,0.00,0.00,0.00,0,90.389,67.695,12.412,0.462,-0.061,0.947,41.35,1061.00,1305.00,-606.00,3099.0000
26133,0.00,0.00,0.00,0,86.145,68.603,28.313,0.285,-0.041,0.945,41.37,1032.00,1256.00,-660.00,3097.0000
26167,0.00,0.00,0.00,0,81.076,70.328,31.511,0.351,-0.052,0.919,41.36,1001.00,1201.00,-717.00,3100.0000
26206,0.00,0.00,0.00,0,74.786,87.176,26.763,0.271,0.010,0.949,41.35,972.00,1142.00,-777.00,3099.0000
26235,0.00,0.00,0.00,0,75.977,86.595,21.855,0.177,0.037,1.017,41.37,936.00,1098.00,-815.00,3098.0000
26264,0.00,0.00,0.00,0,83.496,85.931,16.573,0.228,0.096,1.058,41.36,888.00,1036.00,-837.00,3098.0000
26293,0.00,0.00,0.00,0,67.595,88.939,13.847,0.101,0.114,1.033,41.35,855.00,972.00,-892.00,3097.0000
26327,0.00,0.00,0.00,0,64.794,83.626,7.687,0.062,0.119,1.146,41.36,821.00,930.00,-927.00,3099.0000
26356,0.00,0.00,0.00,0,44.489,57.321,11.832,0.028,0.156,1.089,41.35,787.00,895.00,-945.00,3096.0000
26384,0.00,0.00,0.00,0,17.847,41.183,19.496,0.089,0.157,1.195,41.37,777.00,873.00,-960.00,3100.0000
26413,0.00,0.00,0.00,0,-7.031,22.321,21.588,0.048,0.191,1.042,41.38,795.00,850.00,-955.00,3099.0000
26442,0.00,0.00,0.00,0,-13.053,10.382,25.992,-0.011,0.185,0.973,41.36,816.00,842.00,-963.00,3098.0000
26476,0.00,0.00,0.00,0,-33.870,2.061,38.237,0.022,0.138,1.051,41.36,847.00,830.00,-940.00,3098.0000
26505,0.00,0.00,0.00,0,-47.176,2.351,48.351,0.137,0.159,0.959,41.37,868.00,830.00,-957.00,3095.0000
26534,0.00,0.00,0.00,0,-57.046,26.115,53.954,0.109,0.086,1.008,41.38,923.00,808.00,-932.00,3098.0000
26563,0.00,0.00,0.00,0,-59.015,43.824,49.481,0.069,0.128,0.974,41.37,962.00,775.00,-950.00,3094.0000
26592,0.00,0.00,0.00,0,-55.412,52.366,50.733,-0.070,-0.001,0.957,41.37,1001.00,742.00,-942.00,3098.0000
26641,0.00,0.00,0.00,0,-74.275,41.504,42.718,0.028,0.015,0.978,41.37,1097.00,667.00,-932.00,3097.0000
26671,0.00,0.00,0.00,0,-83.466,60.664,46.244,-0.127,-0.141,1.014,41.36,1167.00,643.00,-915.00,3095.0000
26700,0.00,0.00,0.00,0,-69.412,42.672,28.725,-0.130,-0.187,1.025,41.37,1191.00,582.00,-895.00,3101.0000
26728,0.00,0.00,0.00,0,-70.794,27.771,14.802,-0.159,-0.155,0.992,41.37,1231.00,573.00,-887.00,3097.0000
26757,0.00,0.00,0.00,0,-66.962,22.679,12.092,-0.135,-0.175,0.931,41.36,1275.00,556.00,-837.00,3098.0000
26791,0.00,0.00,0.00,0,-69.069,20.802,8.176,-0.160,-0.208,0.909,41.37,1313.00,551.00,-822.00,3097.0000
26820,0.00,0.00,0.00,0,-63.176,29.595,3.038,-0.111,-0.235,0.896,41.37,1342.00,537.00,-797.00,3099.0000
26849,0.00,0.00,0.00,0,-50.786,32.565,0.992,-0.156,-0.284,0.925,41.37,1376.00,510.00,-795.00,3099.0000
26878,0.00,0.00,0.00,0,-44.908,36.183,1.023,-0.133,-0.294,0.918,41.37,1392.00,486.00,-770.00,3099.0000
26907,0.00,0.00,0.00,0,-29.855,28.214,-0.847,-0.234,-0.337,0.902,41.37,1423.00,473.00,-762.00,3098.0000
26941,0.00,0.00,0.00,0,-10.092,13.305,-12.130,-0.144,-0.364,0.937,41.36,1416.00,473.00,-765.00,3098.0000
26970,0.00,0.00,0.00,0,6.168,8.496,-6.298,-0.130,-0.286,0.926,41.37,1413.00,486.00,-765.00,3098.0000
26999,0.00,0.00,0.00,0,10.725,14.496,-1.336,-0.220,-0.290,0.906,41.38,1418.00,471.00,-755.00,3097.0000
27028,0.00,0.00,0.00,0,11.221,12.458,-4.863,-0.181,-0.292,0.956,41.37,1416.00,462.00,-782.00,3094.0000
27057,0.00,0.00,0.00,0,10.985,6.779,-4.954,-0.198,-0.307,0.979,41.38,1418.00,462.00,-765.00,3095.0000
27091,0.00,0.00,0.00,0,15.832,6.748,-4.702,-0.204,-0.283,0.960,41.37,1400.00,450.00,-782.00,3098.0000
27120,0.00,0.00,0.00,0,18.351,3.275,-5.519,-0.208,-0.258,0.899,41.37,1392.00,471.00,-795.00,3099.0000
27149,0.00,0.00,0.00,0,25.695,1.420,-7.397,-0.200,-0.262,0.916,41.37,1371.00,466.00,-787.00,3098.0000
27178,0.00,0.00,0.00,0,39.122,-5.977,-11.046,-0.196,-0.277,0.979,41.37,1356.00,468.00,-815.00,3100.0000
27220,0.00,0.00,0.00,0,40.878,-14.931,-10.351,-0.130,-0.246,1.008,41.37,1318.00,503.00,-830.00,3098.0000
27253,0.00,0.00,0.00,0,20.405,-7.031,-3.878,-0.146,-0.225,0.971,41.38,1313.00,512.00,-837.00,3094.0000
27282,0.00,0.00,0.00,0,12.183,-2.328,-1.947,-0.179,-0.229,0.943,41.38,1293.00,505.00,-825.00,3100.0000
27311,0.00,0.00,0.00,0,17.443,-3.786,-6.542,-0.179,-0.209,0.952,41.37,1306.00,505.00,-860.00,3099.0000
27340,0.00,0.00,0.00,0,26.160,-6.145,-10.053,-0.144,-0.224,0.989,41.36,1275.00,505.00,-845.00,3101.0000
27369,0.00,0.00,0.00,0,21.450,-6.969,-8.542,-0.143,-0.196,0.978,41.37,1275.00,540.00,-862.00,3098.0000
27402,0.00,0.00,0.00,0,17.557,-4.580,-5.229,-0.170,-0.185,0.950,41.37,1270.00,530.00,-860.00,3099.0000
27431,0.00,0.00,0.00,0,19.511,-4.298,-9.954,-0.169,-0.185,0.977,41.38,1258.00,548.00,-865.00,3094.0000
27479,0.00,0.00,0.00,0,31.344,-7.870,-19.275,-0.132,-0.146,0.980,41.37,1220.00,566.00,-880.00,3099.0000
27508,0.00,0.00,0.00,0,24.794,-8.649,-20.183,-0.136,-0.156,0.990,41.37,1200.00,568.00,-895.00,3101.0000
27537,0.00,0.00,0.00,0,21.008,-7.863,-21.595,-0.126,-0.135,0.970,41.37,1198.00,582.00,-902.00,3097.0000
27571,0.00,0.00,0.00,0,20.458,-6.924,-20.489,-0.102,-0.127,1.003,41.38,1198.00,595.00,-875.00,3094.0000
27600,0.00,0.00,0.00,0,16.336,-8.130,-18.565,-0.119,-0.132,1.000,41.37,1167.00,610.00,-900.00,3095.0000
27629,0.00,0.00,0.00,0,14.840,-10.450,-19.321,-0.105,-0.106,1.000,41.37,1167.00,631.00,-920.00,3097.0000
27658,0.00,0.00,0.00,0,16.282,-14.061,-20.382,-0.088,-0.125,1.010,41.36,1152.00,626.00,-910.00,3098.0000
27687,0.00,0.00,0.00,0,15.290,-14.214,-20.977,-0.068,-0.093,0.991,41.37,1142.00,646.00,-915.00,3097.0000
27721,0.00,0.00,0.00,0,8.405,-9.695,-19.527,-0.107,-0.122,1.046,41.35,1140.00,658.00,-900.00,3098.0000
27750,0.00,0.00,0.00,0,3.511,-11.832,-20.519,-0.061,-0.080,1.029,41.38,1118.00,672.00,-907.00,3101.0000
27779,0.00,0.00,0.00,0,1.962,-13.206,-22.779,-0.061,-0.105,0.997,41.38,1133.00,698.00,-905.00,3098.0000
27808,0.00,0.00,0.00,0,9.107,-12.534,-23.542,-0.037,-0.084,0.988,41.37,1116.00,697.00,-915.00,3097.0000
27837,0.00,0.00,0.00,0,17.198,-7.611,-20.084,-0.065,-0.076,0.997,41.37,1106.00,723.00,-910.00,3099.0000
27886,0.00,0.00,0.00,0,25.924,-11.206,-15.786,0.009,-0.063,1.055,41.37,1080.00,745.00,-917.00,3099.0000
27927,0.00,0.00,0.00,0,19.229,-9.771,-9.595,-0.023,-0.069,1.008,41.37,1068.00,755.00,-910.00,3098.0000
27956,0.00,0.00,0.00,0,29.802,-11.008,-8.847,-0.015,-0.031,1.023,41.37,1046.00,755.00,-917.00,3098.0000
27985,0.00,0.00,0.00,0,34.641,-9.756,-7.656,0.002,-0.043,1.038,41.37,1032.00,775.00,-917.00,3098.0000
28014,0.00,0.00,0.00,0,41.145,-13.069,-9.863,-0.017,-0.036,1.011,41.36,1001.00,786.00,-935.00,3098.0000
28047,0.00,0.00,0.00,0,40.687,-11.710,-11.824,0.015,-0.002,1.023,41.36,957.00,798.00,-942.00,3099.0000
28076,0.00,0.00,0.00,0,31.840,-7.435,-10.031,0.001,0.015,1.056,41.37,951.00,813.00,-932.00,3097.0000
28105,0.00,0.00,0.00,0,21.305,-5.718,-8.466,0.012,0.061,1.021,41.37,926.00,798.00,-932.00,3098.0000
28134,0.00,0.00,0.00,0,12.458,-1.718,-4.351,0.006,0.072,1.004,41.37,928.00,806.00,-922.00,3095.0000
28163,0.00,0.00,0.00,0,7.145,1.611,-2.321,0.022,0.073,0.983,41.37,923.00,806.00,-942.00,3097.0000
28198,0.00,0.00,0.00,0,-0.405,7.557,0.908,-0.009,0.045,1.000,41.39,902.00,811.00,-940.00,3101.0000
28237,0.00,0.00,0.00,0,-7.855,3.076,1.733,0.022,0.037,1.002,41.38,941.00,811.00,-922.00,3102.0000
28266,0.00,0.00,0.00,0,-6.832,5.053,-1.740,0.022,0.043,1.009,41.38,922.00,798.00,-937.00,3098.0000
28295,0.00,0.00,0.00,0,-6.511,8.641,-4.786,0.011,0.063,1.032,41.39,936.00,793.00,-930.00,3098.0000
28324,0.00,0.00,0.00,0,-7.733,8.557,-4.656,-0.022,0.034,1.008,41.38,938.00,796.00,-927.00,3098.0000
28358,0.00,0.00,0.00,0,-6.748,4.718,-6.038,-0.029,0.023,1.029,41.38,948.00,803.00,-925.00,3098.0000
28387,0.00,0.00,0.00,0,-4.939,-1.252,-7.557,0.019,-0.007,1.052,41.38,952.00,793.00,-937.00,3099.0000
28416,0.00,0.00,0.00,0,-2.344,-6.336,-8.031,-0.013,0.012,1.012,41.37,948.00,808.00,-930.00,3099.0000
28445,0.00,0.00,0.00,0,2.542,-4.153,-8.649,-0.024,0.024,0.973,41.37,936.00,808.00,-932.00,3097.0000
28474,0.00,0.00,0.00,0,7.282,1.473,-7.809,0.021,0.006,1.031,41.38,931.00,803.00,-922.00,3095.0000
28507,0.00,0.00,0.00,0,7.328,4.878,-5.015,0.004,-0.012,1.039,41.37,928.00,793.00,-937.00,3098.0000
28536,0.00,0.00,0.00,0,5.046,2.603,-3.702,0.001,0.017,1.004,41.37,907.00,811.00,-922.00,3099.0000
28565,0.00,0.00,0.00,0,5.740,1.191,-3.702,0.022,0.031,1.001,41.37,923.00,808.00,-932.00,3098.0000
28594,0.00,0.00,0.00,0,5.908,6.519,-4.214,0.006,0.034,0.991,41.38,912.00,806.00,-927.00,3099.0000
28623,0.00,0.00,0.00,0,6.786,9.962,-3.740,0.001,0.036,0.969,41.38,910.00,801.00,-920.00,3098.0000
28657,0.00,0.00,0.00,0,7.573,10.214,-2.008,0.014,0.028,0.999,41.37,905.00,783.00,-925.00,3099.0000
28686,0.00,0.00,0.00,0,3.061,10.756,-1.321,0.001,0.030,1.000,41.37,897.00,788.00,-927.00,3099.0000
28715,0.00,0.00,0.00,0,4.481,8.641,-1.748,-0.025,0.041,0.987,41.38,891.00,793.00,-927.00,3098.0000
28744,0.00,0.00,0.00,0,5.901,3.794,-3.573,-0.034,0.043,0.992,41.38,886.00,778.00,-935.00,3097.0000
28774,0.00,0.00,0.00,0,5.267,0.122,-3.817,-0.002,0.065,0.979,41.39,900.00,783.00,-925.00,3098.0000
28808,0.00,0.00,0.00,0,4.977,1.397,-2.687,-0.031,0.035,0.985,41.37,886.00,783.00,-932.00,3097.0000
28837,0.00,0.00,0.00,0,3.687,-0.588,-4.443,-0.022,0.036,0.983,41.38,891.00,788.00,-930.00,3098.0000
28866,0.00,0.00,0.00,0,1.008,0.817,-4.313,-0.018,0.043,0.975,41.38,888.00,783.00,-932.00,3101.0000
28895,0.00,0.00,0.00,0,-0.527,2.305,-3.206,-0.031,0.039,1.004,41.38,891.00,781.00,-932.00,3099.0000
28924,0.00,0.00,0.00,0,-3.282,1.069,-2.252,-0.019,0.015,0.999,41.37,891.00,791.00,-940.00,3098.0000
28953,0.00,0.00,0.00,0,-2.840,1.206,-0.626,-0.008,0.053,0.977,41.38,891.00,778.00,-937.00,3093.0000
28988,0.00,0.00,0.00,0,0.924,1.130,5.099,-0.046,0.048,0.984,41.37,891.00,791.00,-937.00,3096.0000
29017,0.00,0.00,0.00,0,-1.595,0.565,11.679,0.011,0.046,0.999,41.36,895.00,781.00,-927.00,3099.0000
29046,0.00,0.00,0.00,0,-1.183,2.794,17.985,0.004,0.051,0.998,41.37,895.00,781.00,-925.00,3096.0000
29075,0.00,0.00,0.00,0,4.939,4.382,20.321,-0.044,0.045,0.978,41.37,891.00,776.00,-927.00,3095.0000
29104,0.00,0.00,0.00,0,11.878,1.458,21.481,-0.027,0.046,0.987,41.37,892.00,781.00,-940.00,3099.0000
29177,0.00,0.00,0.00,0,16.664,-1.870,14.015,-0.029,0.073,0.996,41.36,888.00,762.00,-942.00,3098.0000
29218,0.00,0.00,0.00,0,11.939,-1.550,12.557,0.011,0.078,1.016,41.37,873.00,770.00,-945.00,3098.0000
29257,0.00,0.00,0.00,0,1.641,4.435,13.099,-0.024,0.071,1.007,41.37,876.00,757.00,-945.00,3097.0000
29285,0.00,0.00,0.00,0,-5.924,6.504,15.031,-0.013,0.069,1.027,41.37,871.00,757.00,-952.00,3100.0000
29314,0.00,0.00,0.00,0,-13.580,6.443,18.275,0.002,0.099,1.007,41.38,897.00,752.00,-942.00,3098.0000
29348,0.00,0.00,0.00,0,-15.496,6.611,27.557,-0.023,0.080,1.012,41.38,910.00,750.00,-940.00,3101.0000
29377,0.00,0.00,0.00,0,-18.405,5.756,36.427,0.008,0.075,1.022,41.37,933.00,740.00,-937.00,3102.0000
29406,0.00,0.00,0.00,0,-18.328,5.931,45.092,-0.030,0.049,1.012,41.37,951.00,706.00,-940.00,3097.0000
29435,0.00,0.00,0.00,0,-18.374,2.992,49.672,-0.028,0.019,0.998,41.39,975.00,713.00,-945.00,3099.0000
29464,0.00,0.00,0.00,0,-19.359,3.611,49.832,-0.034,-0.005,0.999,41.37,986.00,706.00,-927.00,3100.0000
29498,0.00,0.00,0.00,0,-19.229,2.107,45.786,-0.009,0.035,0.982,41.37,1013.00,695.00,-930.00,3099.0000
29527,0.00,0.00,0.00,0,-22.336,9.733,48.260,-0.008,-0.007,1.008,41.37,1025.00,665.00,-932.00,3098.0000
29555,0.00,0.00,0.00,0,-21.901,10.664,44.252,-0.045,-0.029,0.981,41.37,1042.00,656.00,-910.00,3095.0000
29584,0.00,0.00,0.00,0,-13.511,4.145,38.916,-0.030,-0.012,1.001,41.36,1058.00,620.00,-917.00,3095.0000
29613,0.00,0.00,0.00,0,-9.580,2.244,40.427,-0.028,-0.013,0.985,41.37,1076.00,638.00,-922.00,3095.0000
29647,0.00,0.00,0.00,0,-5.626,4.664,43.893,-0.079,-0.061,1.023,41.37,1077.00,612.00,-932.00,3101.0000
29676,0.00,0.00,0.00,0,-1.198,-3.511,43.130,-0.012,-0.031,0.985,41.38,1073.00,600.00,-915.00,3101.0000
29705,0.00,0.00,0.00,0,1.046,3.107,46.046,0.021,-0.013,0.971,41.38,1090.00,595.00,-922.00,3097.0000
29734,0.00,0.00,0.00,0,2.977,10.313,47.092,-0.021,-0.013,0.975,41.37,1082.00,571.00,-925.00,3098.0000
29763,0.00,0.00,0.00,0,2.893,7.947,45.397,-0.096,-0.041,0.994,41.38,1085.00,548.00,-932.00,3099.0000
29797,0.00,0.00,0.00,0,-6.573,3.878,45.328,-0.027,-0.031,0.995,41.37,1097.00,543.00,-902.00,3099.0000
29826,0.00,0.00,0.00,0,-8.855,7.618,44.221,0.002,-0.042,1.022,41.37,1100.00,522.00,-947.00,3095.0000
29855,0.00,0.00,0.00,0,-6.771,9.504,43.237,-0.040,0.020,0.977,41.38,1111.00,496.00,-920.00,3101.0000
29884,0.00,0.00,0.00,0,-12.069,14.450,56.611,-0.068,0.005,0.989,41.38,1118.00,462.00,-927.00,3098.0000
29912,0.00,0.00,0.00,0,-15.366,17.916,63.427,-0.041,-0.021,0.948,41.38,1126.00,457.00,-910.00,3098.0000
29946,0.00,0.00,0.00,0,-15.580,21.588,59.260,-0.099,-0.031,0.986,41.39,1155.00,416.00,-917.00,3095.0000
29975,0.00,0.00,0.00,0,-5.267,19.794,52.481,-0.107,-0.110,0.994,41.38,1145.00,393.00,-900.00,3098.0000
30004,0.00,0.00,0.00,0,-1.473,8.809,40.511,-0.098,-0.042,0.986,41.38,1118.00,372.00,-920.00,3098.0000
30033,0.00,0.00,0.00,0,0.038,6.595,37.458,-0.095,-0.046,0.999,41.39,1137.00,357.00,-925.00,3097.0000
30062,0.00,0.00,0.00,0,0.672,-0.122,28.420,-0.138,-0.063,1.025,41.39,1118.00,350.00,-917.00,3099.0000
30096,0.00,0.00,0.00,0,5.824,-7.084,29.344,-0.080,-0.031,0.967,41.37,1142.00,350.00,-930.00,3101.0000
30125,0.00,0.00,0.00,0,11.649,-8.817,32.290,-0.136,-0.006,0.998,41.37,1108.00,348.00,-917.00,3099.0000
30153,0.00,0.00,0.00,0,8.130,-12.038,40.710,-0.063,-0.003,0.976,41.38,1116.00,360.00,-925.00,3097.0000
30182,0.00,0.00,0.00,0,12.221,-6.496,46.977,-0.072,-0.041,1.015,41.38,1100.00,326.00,-932.00,3098.0000
30211,0.00,0.00,0.00,0,17.611,-4.420,49.908,-0.088,0.033,0.995,41.37,1097.00,328.00,-920.00,3098.0000
30246,0.00,0.00,0.00,0,16.916,-5.351,49.786,-0.103,-0.031,1.065,41.38,1073.00,302.00,-942.00,3094.0000
30285,0.00,0.00,0.00,0,15.229,-10.359,46.893,-0.059,0.031,0.989,41.39,1051.00,297.00,-950.00,3099.0000
30314,0.00,0.00,0.00,0,8.160,-1.702,50.542,-0.024,-0.073,1.165,41.39,1061.00,285.00,-978.00,3099.0000
30343,0.00,0.00,0.00,0,13.252,3.969,59.954,-0.013,0.084,0.917,41.38,1017.00,266.00,-945.00,3099.0000
30372,0.00,0.00,0.00,0,14.412,11.466,73.107,-0.056,0.081,0.974,41.38,1020.00,238.00,-955.00,3098.0000
30421,0.00,0.00,0.00,0,14.046,21.313,85.656,-0.152,0.066,1.028,41.37,970.00,193.00,-963.00,3099.0000
30450,0.00,0.00,0.00,0,8.618,13.092,76.931,-0.101,0.073,1.014,41.37,967.00,161.00,-978.00,3099.0000
30479,0.00,0.00,0.00,0,-2.634,7.275,62.878,-0.121,0.111,0.978,41.38,955.00,132.00,-955.00,3095.0000
30508,0.00,0.00,0.00,0,-13.916,7.168,66.115,-0.139,0.096,1.009,41.37,948.00,127.00,-973.00,3097.0000
30537,0.00,0.00,0.00,0,-17.237,5.481,66.382,-0.128,0.061,0.998,41.38,941.00,108.00,-973.00,3101.0000
30571,0.00,0.00,0.00,0,-11.008,4.977,65.924,-0.110,0.075,0.993,41.37,936.00,96.00,-957.00,3101.0000
30600,0.00,0.00,0.00,0,-2.672,0.931,53.786,-0.116,0.048,1.005,41.37,915.00,81.00,-973.00,3095.0000
30629,0.00,0.00,0.00,0,2.992,-7.786,42.939,-0.097,0.026,1.014,41.37,923.00,91.00,-971.00,3098.0000
30658,0.00,0.00,0.00,0,0.855,-13.183,36.809,-0.078,0.025,0.999,41.37,907.00,91.00,-978.00,3098.0000
30687,0.00,0.00,0.00,0,-2.893,-7.947,41.389,-0.018,0.067,0.988,41.38,917.00,91.00,-968.00,3098.0000
30723,0.00,0.00,0.00,0,-1.305,-4.527,41.916,-0.026,0.018,1.031,41.37,900.00,96.00,-960.00,3099.0000
30751,0.00,0.00,0.00,0,1.359,-10.779,34.771,-0.034,0.070,0.977,41.37,902.00,78.00,-976.00,3095.0000
30780,0.00,0.00,0.00,0,-3.557,-3.687,42.099,-0.033,0.081,0.971,41.37,891.00,83.00,-978.00,3099.0000
30809,0.00,0.00,0.00,0,-7.618,3.130,51.786,-0.048,0.048,1.009,41.37,886.00,70.00,-996.00,3098.0000
30851,0.00,0.00,0.00,0,-12.885,6.458,58.473,-0.019,0.095,0.999,41.38,861.00,52.00,-988.00,3099.0000
30893,0.00,0.00,0.00,0,-6.366,-3.153,35.893,-0.079,0.033,1.045,41.37,852.00,45.00,-988.00,3098.0000
30922,0.00,0.00,0.00,0,-13.145,-6.611,34.725,0.015,0.119,0.943,41.37,868.00,52.00,-981.00,3097.0000
30951,0.00,0.00,0.00,0,-4.924,9.290,38.237,-0.026,-0.042,1.078,41.37,876.00,28.00,-973.00,3097.0000
30980,0.00,0.00,0.00,0,-0.557,2.458,27.504,-0.005,0.080,0.978,41.38,847.00,23.00,-983.00,3097.0000
31009,0.00,0.00,0.00,0,8.145,2.939,26.244,-0.043,0.037,1.000,41.39,845.00,28.00,-998.00,3100.0000
31042,0.00,0.00,0.00,0,-1.786,1.084,13.435,-0.071,0.097,0.944,41.37,837.00,23.00,-986.00,3098.0000
31071,0.00,0.00,0.00,0,-20.336,3.649,13.374,-0.062,0.043,1.011,41.39,857.00,26.00,-991.00,3097.0000
31100,0.00,0.00,0.00,0,-27.229,6.511,14.260,0.018,-0.109,1.094,41.38,863.00,18.00,-973.00,3098.0000
31129,0.00,0.00,0.00,0,-17.863,5.130,2.511,-0.055,-0.027,1.068,41.37,878.00,18.00,-988.00,3097.0000
31158,0.00,0.00,0.00,0,3.053,4.794,-0.023,-0.066,0.034,0.990,41.38,873.00,31.00,-955.00,3099.0000
31187,0.00,0.00,0.00,0,5.107,3.443,-2.573,-0.116,0.081,1.022,41.39,866.00,16.00,-983.00,3097.0000
31220,0.00,0.00,0.00,0,3.641,4.305,6.130,-0.035,0.028,1.033,41.38,857.00,8.00,-981.00,3099.0000
31249,0.00,0.00,0.00,0,-1.802,10.550,14.733,-0.054,-0.053,1.057,41.39,860.00,1.00,-986.00,3098.0000
31288,0.00,0.00,0.00,0,13.649,3.458,6.840,-0.091,0.026,1.061,41.37,852.00,11.00,-976.00,3099.0000
31317,0.00,0.00,0.00,0,22.931,-7.802,0.275,-0.086,0.010,1.026,41.38,835.00,1.00,-981.00,3098.0000
31346,0.00,0.00,0.00,0,15.695,-2.366,4.863,-0.046,0.091,0.942,41.37,816.00,11.00,-991.00,3098.0000
31380,0.00,0.00,0.00,0,3.710,10.626,9.053,-0.038,0.012,1.071,41.38,808.00,3.00,-991.00,3099.0000
31408,0.00,0.00,0.00,0,9.107,0.527,-2.763,-0.087,0.153,0.946,41.37,816.00,6.00,-1008.00,3096.0000
31437,0.00,0.00,0.00,0,7.336,-5.183,-1.443,-0.089,0.091,1.059,41.38,816.00,6.00,-993.00,3094.0000
31466,0.00,0.00,0.00,0,3.015,-11.969,6.359,-0.053,0.065,0.976,41.38,801.00,3.00,-998.00,3098.0000
31495,0.00,0.00,0.00,0,0.603,-5.176,18.061,0.015,0.145,0.957,41.38,803.00,38.00,-998.00,3098.0000
31529,0.00,0.00,0.00,0,-9.763,-1.023,25.450,-0.018,0.063,1.001,41.39,780.00,18.00,-1001.00,3098.0000
31557,0.00,0.00,0.00,0,-9.565,-5.916,23.580,-0.002,0.019,1.004,41.37,795.00,13.00,-1011.00,3098.0000
31586,0.00,0.00,0.00,0,-2.962,-9.443,23.893,0.031,0.075,1.043,41.37,795.00,38.00,-1018.00,3098.0000
31615,0.00,0.00,0.00,0,-4.611,-4.733,29.481,0.011,0.035,1.000,41.38,795.00,47.00,-998.00,3097.0000
31644,0.00,0.00,0.00,0,-6.557,-5.115,30.420,-0.014,0.017,1.007,41.39,780.00,45.00,-1006.00,3099.0000
31693,0.00,0.00,0.00,0,-3.076,-17.389,23.794,-0.028,0.049,1.009,41.38,761.00,57.00,-1016.00,3097.0000
31722,0.00,0.00,0.00,0,0.069,-26.985,22.427,0.012,0.051,0.997,41.38,766.00,91.00,-1013.00,3095.0000
31751,0.00,0.00,0.00,0,-0.611,-32.405,22.145,0.014,0.057,1.029,41.38,763.00,101.00,-1028.00,3099.0000
31780,0.00,0.00,0.00,0,-5.481,-37.046,29.336,0.052,0.061,0.953,41.38,768.00,135.00,-1038.00,3095.0000
31808,0.00,0.00,0.00,0,-4.756,-35.099,33.267,0.089,0.052,0.987,41.38,758.00,158.00,-1051.00,3101.0000
31842,0.00,0.00,0.00,0,-6.198,-29.252,37.267,0.087,0.057,0.994,41.37,756.00,171.00,-1046.00,3098.0000
31871,0.00,0.00,0.00,0,-5.435,-25.756,38.076,0.123,0.040,0.942,41.36,756.00,207.00,-1058.00,3098.0000
31900,0.00,0.00,0.00,0,-3.557,-8.420,42.405,0.100,0.041,1.006,41.37,735.00,215.00,-1061.00,3098.0000
31928,0.00,0.00,0.00,0,-6.145,3.351,49.641,0.195,0.000,1.010,41.36,732.00,220.00,-1071.00,3098.0000
31957,0.00,0.00,0.00,0,-8.817,7.053,50.763,0.094,0.022,0.998,41.37,741.00,217.00,-1088.00,3098.0000
31991,0.00,0.00,0.00,0,-2.008,3.084,44.374,0.039,0.031,1.024,41.37,717.00,212.00,-1096.00,3098.0000
32020,0.00,0.00,0.00,0,1.542,8.817,37.580,0.052,0.045,0.977,41.37,706.00,225.00,-1081.00,3099.0000
32048,0.00,0.00,0.00,0,3.374,18.198,39.840,0.025,-0.028,0.995,41.37,703.00,202.00,-1103.00,3099.0000
32077,0.00,0.00,0.00,0,0.786,26.359,42.298,0.022,0.038,0.958,41.38,681.00,195.00,-1101.00,3098.0000
32106,0.00,0.00,0.00,0,-3.947,31.252,55.221,0.137,0.022,0.978,41.35,683.00,193.00,-1096.00,3095.0000
32140,0.00,0.00,0.00,0,-10.420,35.168,63.992,-0.006,0.031,1.014,41.36,678.00,173.00,-1128.00,3098.0000
32168,0.00,0.00,0.00,0,-20.809,26.298,62.435,0.074,0.009,0.982,41.36,676.00,155.00,-1126.00,3097.0000
32197,0.00,0.00,0.00,0,-24.679,17.924,64.168,-0.009,0.052,0.945,41.37,691.00,142.00,-1126.00,3099.0000
32226,0.00,0.00,0.00,0,-25.008,16.511,78.794,0.151,0.051,1.004,41.36,703.00,150.00,-1156.00,3095.0000
32255,0.00,0.00,0.00,0,-24.344,16.885,95.092,0.015,-0.081,1.002,41.36,715.00,142.00,-1196.00,3098.0000
32299,0.00,0.00,0.00,0,-13.420,4.359,101.550,-0.031,-0.038,0.983,41.35,730.00,125.00,-1228.00,3101.0000
32328,0.00,0.00,0.00,0,0.275,-5.023,103.183,-0.038,-0.145,0.997,41.36,715.00,117.00,-1263.00,3095.0000
32357,0.00,0.00,0.00,0,7.244,-2.992,93.160,-0.077,-0.065,0.921,41.36,715.00,91.00,-1295.00,3095.0000
32385,0.00,0.00,0.00,0,3.183,19.832,79.885,-0.126,-0.060,0.989,41.37,691.00,67.00,-1315.00,3099.0000
32414,0.00,0.00,0.00,0,-3.702,23.977,76.779,-0.019,-0.127,1.009,41.37,691.00,1.00,-1307.00,3098.0000
32448,0.00,0.00,0.00,0,-6.794,30.221,59.557,-0.095,-0.088,1.037,41.34,696.00,-40.00,-1300.00,3097.0000
32533,0.00,0.00,0.00,0,7.290,5.023,84.519,-0.211,0.014,1.091,41.35,638.00,-145.00,-1281.00,3100.0000
32662,0.00,0.00,0.00,0,32.443,-50.260,84.229,0.011,-0.021,0.937,41.36,465.00,-40.00,-1315.00,3098.0000
32803,0.00,0.00,0.00,0,-9.977,-5.611,45.076,0.027,0.015,1.042,41.37,485.00,1.00,-1295.00,3094.0000
32941,0.00,0.00,0.00,0,-17.099,-2.550,18.115,-0.044,-0.044,1.013,41.36,513.00,-11.00,-1305.00,3098.0000
33126,0.00,0.00,0.00,0,2.473,19.435,41.977,-0.026,0.014,0.991,41.37,451.00,-88.00,-1258.00,3095.0000
33240,0.00,0.00,0.00,0,4.412,15.626,43.069,-0.229,-0.084,1.215,41.36,360.00,-168.00,-1173.00,3097.0000
33321,0.00,0.00,0.00,0,20.618,5.122,64.336,-0.005,0.107,1.029,41.36,295.00,-155.00,-1136.00,3098.0000
33360,0.00,0.00,0.00,0,32.885,-21.901,66.557,-0.116,0.038,1.067,41.35,237.00,-120.00,-1108.00,3099.0000
33389,0.00,0.00,0.00,0,37.504,-25.901,67.221,-0.015,0.051,1.001,41.35,193.00,-88.00,-1108.00,3097.0000
33423,0.00,0.00,0.00,0,27.687,13.427,55.588,-0.019,0.075,1.102,41.36,157.00,-81.00,-1068.00,3098.0000
33452,0.00,0.00,0.00,0,25.672,7.252,53.611,-0.044,0.125,1.046,41.36,123.00,-88.00,-1048.00,3099.0000
33480,0.00,0.00,0.00,0,32.786,9.130,57.710,-0.007,0.067,0.982,41.35,83.00,-52.00,-1008.00,3095.0000
33509,0.00,0.00,0.00,0,16.275,15.374,60.672,0.040,0.049,0.938,41.36,61.00,-60.00,-1018.00,3101.0000
33538,0.00,0.00,0.00,0,9.168,14.595,74.489,-0.039,0.181,1.130,41.34,57.00,-42.00,-976.00,3098.0000
33567,0.00,0.00,0.00,0,29.725,-26.664,104.878,0.085,0.110,0.916,41.36,8.00,-6.00,-955.00,3097.0000
33616,0.00,0.00,0.00,0,-1.679,-18.382,61.786,-0.081,0.285,1.138,41.34,-18.00,55.00,-942.00,3093.0000
33656,0.00,0.00,0.00,0,-20.153,-8.374,70.282,0.207,0.124,0.898,41.34,-11.00,101.00,-925.00,3099.0000
33685,0.00,0.00,0.00,0,-47.153,3.702,98.115,0.059,0.044,1.054,41.34,-1.00,113.00,-930.00,3098.0000
33714,0.00,0.00,0.00,0,-25.824,-24.817,101.672,-0.107,0.025,0.978,41.35,1.00,171.00,-947.00,3097.0000
33743,0.00,0.00,0.00,0,3.855,-8.534,71.664,0.035,0.103,1.062,41.34,-1.00,181.00,-935.00,3099.0000
33777,0.00,0.00,0.00,0,-21.992,37.924,52.992,0.143,0.066,1.122,41.34,0.00,166.00,-930.00,3095.0000
33805,0.00,0.00,0.00,0,-48.130,23.412,64.435,-0.017,0.050,1.028,41.34,45.00,166.00,-940.00,3094.0000
33834,0.00,0.00,0.00,0,-24.985,13.496,67.267,0.132,0.016,0.859,41.33,37.00,176.00,-917.00,3098.0000
33863,0.00,0.00,0.00,0,9.962,-5.939,81.893,-0.021,-0.052,1.110,41.33,28.00,200.00,-915.00,3098.0000
33892,0.00,0.00,0.00,0,34.992,-29.519,79.740,0.003,-0.018,0.977,41.33,-1.00,241.00,-900.00,3094.0000
33926,0.00,0.00,0.00,0,28.794,-9.191,53.359,0.112,0.081,1.111,41.34,-26.00,275.00,-890.00,3098.0000
33955,0.00,0.00,0.00,0,10.855,-14.313,61.740,0.126,0.116,1.110,41.32,-32.00,297.00,-872.00,3097.0000
33984,0.00,0.00,0.00,0,3.679,-37.168,80.214,0.042,-0.045,1.007,41.34,-40.00,355.00,-875.00,3095.0000
34012,0.00,0.00,0.00,0,7.061,-30.832,64.924,0.129,0.043,0.798,41.34,-50.00,385.00,-882.00,3098.0000
34041,0.00,0.00,0.00,0,11.504,5.420,51.542,0.108,0.049,1.110,41.33,-42.00,391.00,-862.00,3092.0000
34075,0.00,0.00,0.00,0,15.412,-11.031,52.954,0.099,-0.003,0.931,41.34,-61.00,423.00,-867.00,3099.0000
34104,0.00,0.00,0.00,0,34.977,-2.916,48.038,0.204,0.121,0.973,41.33,-61.00,437.00,-837.00,3099.0000
34133,0.00,0.00,0.00,0,51.191,-13.008,61.649,0.118,0.041,1.050,41.34,-95.00,465.00,-815.00,3097.0000
34162,0.00,0.00,0.00,0,50.023,-18.000,56.649,0.212,0.068,0.913,41.34,-123.00,507.00,-815.00,3099.0000
34191,0.00,0.00,0.00,0,32.351,-10.771,51.351,0.181,0.145,1.066,41.34,-157.00,525.00,-792.00,3095.0000
34224,0.00,0.00,0.00,0,17.985,-9.496,42.099,0.147,0.066,0.943,41.33,-153.00,558.00,-780.00,3095.0000
34253,0.00,0.00,0.00,0,16.061,0.458,21.603,0.171,0.069,0.937,41.34,-170.00,566.00,-775.00,3099.0000
34282,0.00,0.00,0.00,0,12.389,7.641,12.046,0.211,0.225,1.134,41.34,-155.00,571.00,-777.00,3097.0000
34311,0.00,0.00,0.00,0,-7.214,1.939,11.084,0.139,0.115,0.976,41.33,-165.00,573.00,-785.00,3096.0000
34341,0.00,0.00,0.00,0,-5.924,2.015,11.924,0.151,0.177,1.022,41.33,-138.00,573.00,-767.00,3098.0000
34384,0.00,0.00,0.00,0,2.855,-9.603,22.420,0.190,0.156,0.971,41.34,-141.00,600.00,-762.00,3101.0000
34413,0.00,0.00,0.00,0,4.679,-8.053,27.786,0.209,0.146,0.987,41.34,-165.00,610.00,-765.00,3098.0000
34442,0.00,0.00,0.00,0,6.458,-3.473,32.275,0.176,0.142,0.986,41.34,-126.00,623.00,-775.00,3097.0000
34471,0.00,0.00,0.00,0,15.427,-4.214,36.267,0.185,0.162,0.945,41.34,-136.00,641.00,-755.00,3098.0000
34500,0.00,0.00,0.00,0,24.885,1.939,40.198,0.165,0.134,1.014,41.35,-157.00,653.00,-762.00,3099.0000
34534,0.00,0.00,0.00,0,25.679,1.046,52.214,0.170,0.087,0.994,41.34,-180.00,675.00,-750.00,3099.0000
34563,0.00,0.00,0.00,0,23.427,5.374,52.443,0.220,0.185,0.987,41.33,-165.00,690.00,-737.00,3099.0000
34591,0.00,0.00,0.00,0,21.954,5.634,49.015,0.209,0.137,0.992,41.34,-167.00,708.00,-717.00,3096.0000
34620,0.00,0.00,0.00,0,14.351,2.771,51.145,0.215,0.137,0.989,41.33,-148.00,731.00,-717.00,3098.0000
34649,0.00,0.00,0.00,0,9.565,7.527,50.206,0.260,0.136,0.868,41.34,-167.00,750.00,-710.00,3099.0000
34683,0.00,0.00,0.00,0,5.794,33.504,50.901,0.193,0.218,0.918,41.33,-136.00,747.00,-720.00,3098.0000
34711,0.00,0.00,0.00,0,0.000,44.351,53.557,0.172,0.097,1.070,41.34,-146.00,767.00,-720.00,3097.0000
34740,0.00,0.00,0.00,0,-1.603,22.649,47.450,0.166,0.115,0.994,41.35,-122.00,762.00,-735.00,3099.0000
34769,0.00,0.00,0.00,0,-4.924,19.458,39.267,0.198,0.159,0.914,41.35,-123.00,765.00,-732.00,3098.0000
34798,0.00,0.00,0.00,0,-6.198,36.779,33.908,0.164,0.161,0.930,41.36,-102.00,762.00,-745.00,3102.0000
34863,0.00,0.00,0.00,0,-1.977,68.954,47.573,0.064,0.165,1.021,41.34,-78.00,742.00,-777.00,3095.0000
34892,0.00,0.00,0.00,0,-0.107,63.908,61.351,0.085,0.190,1.063,41.34,-76.00,726.00,-780.00,3097.0000
34921,0.00,0.00,0.00,0,-1.817,50.863,73.420,0.061,0.011,1.129,41.34,-57.00,706.00,-797.00,3099.0000
34950,0.00,0.00,0.00,0,-0.802,27.397,63.725,-0.034,0.063,1.006,41.33,-40.00,728.00,-800.00,3097.0000
34979,0.00,0.00,0.00,0,-2.916,24.473,51.145,-0.021,0.059,1.076,41.36,-37.00,728.00,-805.00,3098.0000
35013,0.00,0.00,0.00,0,-10.550,9.115,41.038,0.053,0.088,1.012,41.34,-13.00,740.00,-807.00,3097.0000
35042,0.00,0.00,0.00,0,-9.336,7.557,30.061,0.005,0.120,0.976,41.34,8.00,752.00,-805.00,3101.0000
35071,0.00,0.00,0.00,0,-7.061,6.939,23.344,0.032,0.027,1.031,41.34,6.00,762.00,-800.00,3095.0000
35100,0.00,0.00,0.00,0,-6.015,1.466,13.443,0.053,0.090,0.992,41.34,0.00,752.00,-820.00,3095.0000
35129,0.00,0.00,0.00,0,-5.725,-0.023,8.046,0.034,0.072,1.038,41.34,28.00,752.00,-825.00,3095.0000
35158,0.00,0.00,0.00,0,-3.336,-6.130,3.534,0.047,0.067,1.015,41.34,28.00,762.00,-812.00,3098.0000
35192,0.00,0.00,0.00,0,-4.252,-8.992,-6.229,0.055,0.132,0.963,41.34,11.00,757.00,-822.00,3095.0000
35221,0.00,0.00,0.00,0,-8.191,-0.412,-8.954,0.062,0.035,0.960,41.35,23.00,775.00,-810.00,3097.0000
35250,0.00,0.00,0.00,0,-11.962,9.115,-15.130,0.076,0.048,0.985,41.34,45.00,760.00,-817.00,3098.0000
35279,0.00,0.00,0.00,0,-13.802,17.137,-21.214,0.069,-0.022,0.963,41.34,42.00,752.00,-830.00,3101.0000
35308,0.00,0.00,0.00,0,-20.817,23.473,-32.855,-0.021,0.028,1.037,41.33,47.00,726.00,-840.00,3095.0000
35343,0.00,0.00,0.00,0,-29.275,21.229,-43.496,0.020,-0.037,0.973,41.35,60.00,701.00,-847.00,3095.0000
35382,0.00,0.00,0.00,0,-30.573,22.450,-55.885,-0.011,0.011,1.010,41.34,76.00,665.00,-860.00,3097.0000
35411,0.00,0.00,0.00,0,-32.962,21.206,-60.718,0.021,-0.097,0.951,41.34,83.00,626.00,-875.00,3094.0000
35440,0.00,0.00,0.00,0,-35.023,26.725,-75.809,-0.044,0.011,1.135,41.34,105.00,590.00,-877.00,3095.0000
35469,0.00,0.00,0.00,0,-25.374,8.267,-78.221,-0.044,-0.079,0.995,41.34,122.00,582.00,-900.00,3095.0000
35503,0.00,0.00,0.00,0,-20.634,0.756,-80.832,-0.038,-0.046,1.063,41.34,120.00,561.00,-907.00,3100.0000
35532,0.00,0.00,0.00,0,-18.145,-10.863,-83.282,-0.044,-0.068,1.046,41.34,117.00,532.00,-910.00,3097.0000
35561,0.00,0.00,0.00,0,-19.733,-6.321,-86.603,0.019,-0.133,0.852,41.33,133.00,535.00,-905.00,3095.0000
35590,0.00,0.00,0.00,0,-23.611,13.450,-89.267,-0.054,-0.124,1.119,41.34,138.00,493.00,-915.00,3098.0000
35619,0.00,0.00,0.00,0,-29.443,-11.603,-86.550,-0.033,-0.084,1.061,41.34,151.00,488.00,-920.00,3095.0000
35653,0.00,0.00,0.00,0,-45.473,-6.519,-89.229,0.006,-0.201,0.901,41.34,177.00,465.00,-935.00,3095.0000
35682,0.00,0.00,0.00,0,-55.931,19.649,-99.985,-0.004,-0.155,0.971,41.34,215.00,427.00,-930.00,3099.0000
35711,0.00,0.00,0.00,0,-62.420,21.878,-92.389,-0.022,-0.168,1.030,41.33,251.00,411.00,-960.00,3099.0000
35740,0.00,0.00,0.00,0,-61.099,22.397,-82.031,0.009,-0.275,0.868,41.35,307.00,382.00,-960.00,3099.0000
35769,0.00,0.00,0.00,0,-56.954,40.389,-80.107,-0.001,-0.233,0.991,41.35,333.00,336.00,-971.00,3100.0000
35803,0.00,0.00,0.00,0,-50.206,35.145,-67.901,0.010,-0.295,0.921,41.33,376.00,316.00,-986.00,3097.0000
35832,0.00,0.00,0.00,0,-35.939,48.267,-66.191,-0.043,-0.279,1.022,41.33,398.00,271.00,-976.00,3099.0000
35861,0.00,0.00,0.00,0,-24.763,34.122,-55.496,-0.099,-0.378,1.027,41.34,420.00,248.00,-976.00,3101.0000
35890,0.00,0.00,0.00,0,-15.748,33.626,-60.382,-0.013,-0.389,0.825,41.34,446.00,222.00,-981.00,3097.0000
35919,0.00,0.00,0.00,0,-8.916,61.450,-71.305,-0.026,-0.365,0.990,41.35,446.00,183.00,-976.00,3099.0000
35953,0.00,0.00,0.00,0,-2.160,35.191,-68.351,-0.108,-0.356,1.001,41.34,472.00,140.00,-986.00,3099.0000
35983,0.00,0.00,0.00,0,10.374,21.305,-62.718,-0.087,-0.417,0.928,41.36,467.00,130.00,-971.00,3099.0000
36012,0.00,0.00,0.00,0,24.122,33.153,-69.198,-0.036,-0.407,0.820,41.35,475.00,91.00,-963.00,3101.0000
36041,0.00,0.00,0.00,0,33.641,58.573,-79.130,0.072,-0.283,0.897,41.34,472.00,77.00,-978.00,3097.0000
36070,0.00,0.00,0.00,0,44.634,52.779,-72.534,-0.116,-0.334,1.037,41.34,456.00,31.00,-955.00,3098.0000
36119,0.00,0.00,0.00,0,57.679,31.595,-68.084,-0.087,-0.290,1.028,41.35,417.00,-8.00,-942.00,3099.0000
36149,0.00,0.00,0.00,0,63.733,15.962,-63.489,-0.071,-0.243,0.948,41.34,402.00,-28.00,-955.00,3095.0000
36178,0.00,0.00,0.00,0,70.122,19.443,-62.550,-0.110,-0.262,1.004,41.35,371.00,-31.00,-930.00,3098.0000
36207,0.00,0.00,0.00,0,73.763,15.786,-64.962,-0.064,-0.183,0.959,41.35,345.00,-57.00,-940.00,3095.0000
36236,0.00,0.00,0.00,0,80.878,21.160,-69.084,-0.067,-0.152,0.969,41.35,311.00,-60.00,-912.00,3094.0000
36270,0.00,0.00,0.00,0,88.573,22.237,-70.321,-0.105,-0.074,1.037,41.35,261.00,-101.00,-915.00,3101.0000
36299,0.00,0.00,0.00,0,96.122,7.466,-63.947,-0.146,-0.057,1.058,41.35,211.00,-116.00,-890.00,3099.0000
36328,0.00,0.00,0.00,0,96.786,-3.985,-56.412,-0.061,-0.018,0.961,41.34,180.00,-113.00,-895.00,3095.0000
36357,0.00,0.00,0.00,0,94.038,-2.397,-46.771,-0.017,0.105,1.061,41.34,146.00,-117.00,-887.00,3099.0000
36396,0.00,0.00,0.00,0,90.023,-20.756,-25.420,-0.065,0.095,0.995,41.34,63.00,-103.00,-865.00,3099.0000
36430,0.00,0.00,0.00,0,89.855,-22.351,-15.504,-0.036,0.114,1.007,41.34,13.00,-91.00,-842.00,3099.0000
36459,0.00,0.00,0.00,0,79.221,-26.618,-11.191,-0.075,0.172,1.036,41.34,-16.00,-81.00,-830.00,3099.0000
36488,0.00,0.00,0.00,0,69.374,-40.611,-5.519,-0.017,0.211,1.002,41.34,-63.00,-65.00,-822.00,3095.0000
36517,0.00,0.00,0.00,0,62.282,-45.374,-3.939,0.000,0.227,0.949,41.34,-115.00,-38.00,-817.00,3098.0000
36546,0.00,0.00,0.00,0,55.924,-45.412,-2.336,0.032,0.295,0.933,41.34,-100.00,-6.00,-805.00,3099.0000
36601,0.00,0.00,0.00,0,40.641,-61.534,10.069,0.059,0.273,0.972,41.34,-167.00,47.00,-807.00,3097.0000
36641,0.00,0.00,0.00,0,19.130,-60.420,12.977,0.186,0.333,0.906,41.34,-183.00,103.00,-807.00,3091.0000
36670,0.00,0.00,0.00,0,-0.122,-52.450,9.496,0.110,0.312,0.966,41.34,-191.00,145.00,-830.00,3097.0000
36699,0.00,0.00,0.00,0,-10.389,-57.847,10.550,0.169,0.292,0.949,41.35,-180.00,176.00,-825.00,3097.0000
36728,0.00,0.00,0.00,0,-27.878,-57.237,9.084,0.231,0.266,0.901,41.35,-146.00,200.00,-835.00,3098.0000
36761,0.00,0.00,0.00,0,-54.557,-56.519,3.237,0.193,0.293,1.031,41.34,-117.00,251.00,-875.00,3101.0000
36790,0.00,0.00,0.00,0,-69.031,-71.824,3.473,0.254,0.229,0.857,41.35,-68.00,292.00,-910.00,3099.0000
36819,0.00,0.00,0.00,0,-73.962,-52.878,4.344,0.301,0.182,0.866,41.35,-26.00,343.00,-937.00,3098.0000
36848,0.00,0.00,0.00,0,-77.427,-36.649,2.802,0.328,0.129,0.917,41.34,37.00,338.00,-952.00,3099.0000
36877,0.00,0.00,0.00,0,-75.389,-31.534,3.191,0.329,0.111,1.021,41.35,86.00,372.00,-971.00,3098.0000
36911,0.00,0.00,0.00,0,-76.450,-31.092,0.405,0.361,0.027,0.916,41.35,162.00,416.00,-1001.00,3097.0000
36940,0.00,0.00,0.00,0,-78.275,-16.519,-3.053,0.387,0.038,0.962,41.34,230.00,423.00,-996.00,3103.0000
36968,0.00,0.00,0.00,0,-74.618,-5.504,-7.779,0.414,-0.063,1.010,41.33,271.00,426.00,-1016.00,3099.0000
36997,0.00,0.00,0.00,0,-70.565,-1.885,-9.130,0.403,-0.050,0.976,41.33,323.00,440.00,-1041.00,3097.0000
37026,0.00,0.00,0.00,0,-63.473,1.527,-9.656,0.392,-0.081,0.960,41.34,362.00,432.00,-1046.00,3095.0000
37060,0.00,0.00,0.00,0,-61.595,8.282,-15.992,0.375,-0.125,0.935,41.34,412.00,423.00,-1056.00,3098.0000
37089,0.00,0.00,0.00,0,-52.099,20.198,-21.641,0.368,-0.134,1.024,41.34,461.00,421.00,-1058.00,3098.0000
37118,0.00,0.00,0.00,0,-43.252,22.794,-21.794,0.383,-0.149,0.879,41.34,501.00,401.00,-1073.00,3095.0000
37146,0.00,0.00,0.00,0,-33.252,34.183,-24.702,0.363,-0.155,0.935,41.34,516.00,385.00,-1076.00,3097.0000
37175,0.00,0.00,0.00,0,-30.214,41.298,-25.366,0.357,-0.181,0.882,41.34,542.00,355.00,-1071.00,3095.0000
37209,0.00,0.00,0.00,0,-25.824,59.450,-25.252,0.304,-0.205,0.893,41.33,563.00,316.00,-1093.00,3098.0000
37238,0.00,0.00,0.00,0,-18.710,73.038,-30.313,0.236,-0.203,1.021,41.34,556.00,275.00,-1073.00,3100.0000
37267,0.00,0.00,0.00,0,-16.901,65.656,-36.084,0.201,-0.205,1.059,41.34,585.00,225.00,-1063.00,3097.0000
37296,0.00,0.00,0.00,0,-19.756,42.603,-38.244,0.233,-0.204,0.953,41.37,615.00,191.00,-1073.00,3098.0000
37325,0.00,0.00,0.00,0,-18.939,44.389,-41.962,0.207,-0.219,0.970,41.34,623.00,176.00,-1048.00,3099.0000
37375,0.00,0.00,0.00,0,-16.122,35.191,-45.740,0.167,-0.181,0.995,41.34,660.00,132.00,-1066.00,3098.0000
37425,0.00,0.00,0.00,0,-14.344,27.267,-43.603,0.153,-0.218,0.895,41.34,693.00,130.00,-1066.00,3099.0000
37454,0.00,0.00,0.00,0,-15.115,33.573,-50.710,0.119,-0.229,1.028,41.34,710.00,113.00,-1068.00,3097.0000
37483,0.00,0.00,0.00,0,-13.427,28.634,-49.237,0.155,-0.220,0.965,41.33,727.00,96.00,-1063.00,3099.0000
37512,0.00,0.00,0.00,0,-10.237,34.183,-49.969,0.186,-0.216,0.915,41.33,746.00,77.00,-1058.00,3099.0000
37546,0.00,0.00,0.00,0,-7.015,45.435,-51.359,0.149,-0.252,0.950,41.33,756.00,65.00,-1056.00,3098.0000
37575,0.00,0.00,0.00,0,-11.015,52.885,-55.580,0.102,-0.240,0.970,41.34,777.00,23.00,-1046.00,3097.0000
37603,0.00,0.00,0.00,0,-8.130,51.565,-49.519,0.089,-0.212,0.984,41.34,797.00,6.00,-1056.00,3097.0000
37632,0.00,0.00,0.00,0,2.840,48.305,-42.069,0.062,-0.253,0.933,41.33,797.00,-11.00,-1023.00,3098.0000
37661,0.00,0.00,0.00,0,13.069,59.252,-44.130,0.078,-0.231,0.939,41.34,787.00,-50.00,-1036.00,3098.0000
37695,0.00,0.00,0.00,0,17.374,66.237,-45.718,0.046,-0.225,0.960,41.34,770.00,-98.00,-1013.00,3097.0000
37724,0.00,0.00,0.00,0,24.496,65.496,-42.641,-0.014,-0.219,1.012,41.34,772.00,-113.00,-1006.00,3095.0000
37753,0.00,0.00,0.00,0,38.137,63.664,-36.313,-0.060,-0.226,1.040,41.34,758.00,-156.00,-1003.00,3095.0000
37782,0.00,0.00,0.00,0,50.687,57.336,-34.336,-0.056,-0.190,1.003,41.34,720.00,-188.00,-976.00,3094.0000
37815,0.00,0.00,0.00,0,66.260,48.573,-30.031,-0.139,-0.127,1.083,41.34,655.00,-220.00,-973.00,3097.0000
37844,0.00,0.00,0.00,0,86.611,42.031,-24.130,-0.123,-0.085,1.044,41.34,616.00,-236.00,-963.00,3094.0000
37873,0.00,0.00,0.00,0,96.679,39.214,-21.779,-0.130,-0.100,1.031,41.33,571.00,-263.00,-937.00,3094.0000
37902,0.00,0.00,0.00,0,100.115,26.389,-31.664,-0.145,0.031,0.973,41.34,490.00,-292.00,-940.00,3097.0000
37931,0.00,0.00,0.00,0,100.634,25.206,-33.160,-0.144,0.067,0.964,41.33,448.00,-307.00,-907.00,3095.0000
37965,0.00,0.00,0.00,0,97.260,29.084,-23.740,-0.184,0.125,1.082,41.33,371.00,-318.00,-902.00,3093.0000
37994,0.00,0.00,0.00,0,92.115,13.824,-12.634,-0.194,0.157,0.986,41.33,316.00,-318.00,-890.00,3099.0000
38023,0.00,0.00,0.00,0,85.962,3.893,-7.565,-0.174,0.177,0.985,41.35,277.00,-323.00,-870.00,3097.0000
38052,0.00,0.00,0.00,0,84.084,-6.550,-4.710,-0.171,0.238,0.976,41.34,215.00,-323.00,-870.00,3099.0000
38081,0.00,0.00,0.00,0,82.206,-14.466,-0.672,-0.139,0.271,0.912,41.35,183.00,-328.00,-857.00,3098.0000
38114,0.00,0.00,0.00,0,76.794,-18.282,1.863,-0.135,0.274,0.917,41.33,112.00,-307.00,-850.00,3097.0000
38143,0.00,0.00,0.00,0,70.580,-20.458,-0.443,-0.155,0.326,0.948,41.34,73.00,-292.00,-847.00,3098.0000
38172,0.00,0.00,0.00,0,61.901,-31.679,0.046,-0.125,0.398,0.919,41.32,32.00,-261.00,-820.00,3097.0000
38201,0.00,0.00,0.00,0,41.924,-43.405,6.511,-0.075,0.421,0.944,41.33,13.00,-238.00,-825.00,3097.0000
38230,0.00,0.00,0.00,0,22.473,-56.267,14.092,-0.068,0.372,0.874,41.33,8.00,-215.00,-845.00,3095.0000
38264,0.00,0.00,0.00,0,5.656,-64.427,11.992,-0.060,0.420,0.967,41.33,6.00,-183.00,-860.00,3097.0000
38295,0.00,0.00,0.00,0,-6.282,-81.153,14.504,0.022,0.398,0.928,41.33,6.00,-106.00,-887.00,3097.0000
38324,0.00,0.00,0.00,0,-15.550,-92.847,19.244,0.042,0.397,0.927,41.33,6.00,-36.00,-902.00,3093.0000
38353,0.00,0.00,0.00,0,-25.718,-100.107,20.473,0.052,0.361,0.872,41.33,50.00,13.00,-952.00,3095.0000
38384,0.00,0.00,0.00,0,-38.687,-91.527,19.168,0.206,0.378,0.851,41.33,63.00,72.00,-960.00,3098.0000
38423,0.00,0.00,0.00,0,-58.496,-65.550,19.534,0.215,0.292,0.879,41.33,122.00,163.00,-998.00,3097.0000
38457,0.00,0.00,0.00,0,-64.122,-50.794,14.702,0.248,0.245,0.949,41.34,170.00,191.00,-1006.00,3098.0000
38486,0.00,0.00,0.00,0,-62.305,-47.290,10.344,0.399,0.242,0.916,41.33,230.00,236.00,-1041.00,3099.0000
38515,0.00,0.00,0.00,0,-63.664,-42.924,10.511,0.311,0.185,0.945,41.34,268.00,258.00,-1058.00,3097.0000
38544,0.00,0.00,0.00,0,-61.634,-35.916,7.573,0.301,0.152,0.972,41.34,307.00,300.00,-1056.00,3094.0000
38573,0.00,0.00,0.00,0,-58.817,-33.267,4.412,0.426,0.142,0.893,41.32,350.00,331.00,-1056.00,3093.0000
38622,0.00,0.00,0.00,0,-55.924,-29.267,0.130,0.358,0.080,0.966,41.33,425.00,365.00,-1076.00,3100.0000
38662,0.00,0.00,0.00,0,-56.855,-16.382,-4.382,0.387,0.042,0.929,41.33,496.00,385.00,-1091.00,3097.0000
38691,0.00,0.00,0.00,0,-54.328,-4.420,-7.198,0.375,0.029,0.935,41.32,525.00,391.00,-1086.00,3097.0000
38720,0.00,0.00,0.00,0,-54.244,1.527,-10.664,0.378,0.007,0.910,41.32,576.00,388.00,-1091.00,3099.0000
38749,0.00,0.00,0.00,0,-56.275,9.260,-13.588,0.388,-0.031,0.910,41.34,621.00,387.00,-1091.00,3099.0000
38783,0.00,0.00,0.00,0,-53.908,22.412,-16.427,0.336,-0.052,0.956,41.32,667.00,385.00,-1096.00,3097.0000
38812,0.00,0.00,0.00,0,-48.695,22.557,-19.382,0.366,-0.069,0.961,41.33,712.00,352.00,-1098.00,3098.0000
38841,0.00,0.00,0.00,0,-44.099,24.000,-19.702,0.342,-0.106,0.966,41.33,738.00,352.00,-1096.00,3098.0000
38870,0.00,0.00,0.00,0,-37.008,21.420,-20.679,0.333,-0.094,0.907,41.33,753.00,343.00,-1093.00,3095.0000
38904,0.00,0.00,0.00,0,-29.725,27.710,-20.893,0.329,-0.115,0.915,41.33,792.00,318.00,-1076.00,3095.0000
38933,0.00,0.00,0.00,0,-25.908,37.099,-21.229,0.276,-0.140,1.027,41.32,813.00,305.00,-1071.00,3098.0000
38962,0.00,0.00,0.00,0,-22.489,32.672,-24.023,0.296,-0.138,0.962,41.34,811.00,280.00,-1063.00,3095.0000
38991,0.00,0.00,0.00,0,-19.366,34.519,-24.519,0.289,-0.141,0.943,41.33,847.00,253.00,-1073.00,3097.0000
39020,0.00,0.00,0.00,0,-16.328,38.099,-24.397,0.269,-0.139,0.997,41.33,855.00,251.00,-1066.00,3097.0000
39054,0.00,0.00,0.00,0,-11.466,43.511,-25.992,0.252,-0.163,0.927,41.33,866.00,232.00,-1066.00,3095.0000
39083,0.00,0.00,0.00,0,-12.725,53.168,-25.023,0.248,-0.132,1.004,41.34,881.00,191.00,-1046.00,3095.0000
39112,0.00,0.00,0.00,0,-9.672,51.366,-18.107,0.224,-0.125,0.959,41.32,873.00,176.00,-1046.00,3098.0000
39140,0.00,0.00,0.00,0,-11.160,57.557,-15.061,0.172,-0.191,1.005,41.33,883.00,132.00,-1043.00,3099.0000
39169,0.00,0.00,0.00,0,-5.374,55.725,-18.305,0.141,-0.167,1.027,41.33,886.00,86.00,-1031.00,3098.0000
39203,0.00,0.00,0.00,0,9.344,47.618,-19.137,0.116,-0.148,0.995,41.33,886.00,67.00,-1028.00,3099.0000
39232,0.00,0.00,0.00,0,24.534,45.664,-16.397,0.089,-0.141,1.022,41.33,871.00,42.00,-1031.00,3095.0000
39261,0.00,0.00,0.00,0,35.840,49.641,-13.855,0.053,-0.136,1.022,41.33,835.00,0.00,-1018.00,3098.0000
39290,0.00,0.00,0.00,0,44.893,49.061,-13.733,0.038,-0.122,0.976,41.33,811.00,-18.00,-1028.00,3098.0000
39319,0.00,0.00,0.00,0,51.191,51.458,-16.221,0.041,-0.091,0.989,41.33,782.00,-72.00,-1016.00,3099.0000
39353,0.00,0.00,0.00,0,53.695,53.260,-13.053,0.007,-0.055,1.030,41.33,737.00,-98.00,-1013.00,3097.0000
39382,0.00,0.00,0.00,0,57.275,45.053,-8.168,-0.030,-0.010,1.004,41.30,693.00,-125.00,-988.00,3099.0000
39411,0.00,0.00,0.00,0,62.687,31.519,-6.076,-0.048,0.002,0.973,41.33,655.00,-147.00,-983.00,3098.0000
39450,0.00,0.00,0.00,0,61.092,33.046,-7.450,-0.065,0.050,1.004,41.33,595.00,-158.00,-988.00,3095.0000
39479,0.00,0.00,0.00,0,56.580,32.740,-7.740,-0.108,0.063,1.044,41.31,563.00,-200.00,-976.00,3097.0000
39513,0.00,0.00,0.00,0,59.069,24.321,-6.733,-0.087,0.112,0.953,41.34,525.00,-215.00,-971.00,3098.0000
39542,0.00,0.00,0.00,0,61.809,24.275,-4.824,-0.107,0.152,0.945,41.34,477.00,-227.00,-917.00,3098.0000
39571,0.00,0.00,0.00,0,63.710,28.252,-1.725,-0.125,0.188,0.980,41.34,446.00,-243.00,-945.00,3096.0000
39600,0.00,0.00,0.00,0,60.458,27.695,1.466,-0.150,0.198,0.993,41.34,391.00,-263.00,-927.00,3097.0000
39629,0.00,0.00,0.00,0,63.038,21.962,2.641,-0.146,0.213,0.973,41.33,355.00,-271.00,-912.00,3099.0000
39663,0.00,0.00,0.00,0,64.305,17.763,2.679,-0.149,0.273,0.976,41.33,307.00,-280.00,-885.00,3098.0000
39692,0.00,0.00,0.00,0,63.901,8.908,4.252,-0.171,0.292,0.993,41.33,276.00,-300.00,-892.00,3095.0000
39721,0.00,0.00,0.00,0,62.099,-4.031,3.954,-0.136,0.326,0.928,41.32,222.00,-295.00,-887.00,3099.0000
39750,0.00,0.00,0.00,0,61.588,-6.374,4.305,-0.151,0.354,0.950,41.33,201.00,-280.00,-865.00,3099.0000
39778,0.00,0.00,0.00,0,63.794,-5.351,4.634,-0.145,0.374,0.915,41.32,157.00,-282.00,-875.00,3098.0000
39828,0.00,0.00,0.00,0,59.924,-1.840,4.374,-0.152,0.427,0.909,41.34,100.00,-275.00,-832.00,3098.0000
39857,0.00,0.00,0.00,0,53.122,-5.809,6.809,-0.121,0.467,0.899,41.32,60.00,-271.00,-820.00,3097.0000
39886,0.00,0.00,0.00,0,47.031,-8.252,10.847,-0.125,0.478,0.913,41.33,32.00,-256.00,-810.00,3094.0000
39914,0.00,0.00,0.00,0,45.901,-14.855,14.924,-0.131,0.523,0.891,41.31,6.00,-238.00,-817.00,3099.0000
39943,0.00,0.00,0.00,0,42.840,-20.122,19.542,-0.105,0.506,0.863,41.32,-32.00,-248.00,-807.00,3096.0000
39972,0.00,0.00,0.00,0,35.802,-26.802,21.252,-0.087,0.540,0.869,41.32,-40.00,-207.00,-805.00,3099.0000
40028,0.00,0.00,0.00,0,28.198,-26.740,27.008,-0.052,0.535,0.861,41.32,-91.00,-173.00,-800.00,3093.0000
40057,0.00,0.00,0.00,0,30.870,-30.527,26.542,-0.007,0.564,0.823,41.32,-110.00,-142.00,-797.00,3097.0000
40086,0.00,0.00,0.00,0,28.595,-32.321,29.023,0.009,0.590,0.821,41.32,-133.00,-108.00,-805.00,3099.0000
40115,0.00,0.00,0.00,0,24.260,-27.664,29.427,0.009,0.594,0.813,41.31,-160.00,-78.00,-802.00,3099.0000
40151,0.00,0.00,0.00,0,18.099,-27.977,28.710,0.048,0.599,0.813,41.31,-172.00,-47.00,-805.00,3094.0000
