now[ms],AHT_tmp[C],AHT_hum,BMP_temp[C],BMP_pres,gx,gy,gz,ax,ay,az,gtemp,magx,magy,magz,volt
1531,21.66,53.78,22.39,102653,19.504,9.359,-43.992,-0.040,-0.385,1.007,40.15,1431.00,566.00,-802.00,3087.0000
1608,21.72,53.69,22.39,102653,3.305,20.061,-30.603,-0.123,-0.394,0.914,40.15,1426.00,573.00,-805.00,3083.0000
1683,21.77,53.65,22.39,102654,-20.534,36.710,-59.595,-0.072,-0.352,0.750,40.06,1433.00,595.00,-777.00,3085.0000
1758,21.80,53.60,22.39,102654,15.229,30.565,-43.489,-0.108,-0.280,0.711,40.06,1385.00,612.00,-777.00,3085.0000
1840,21.82,53.57,22.40,102651,1.107,27.137,-55.740,-0.071,-0.293,0.858,40.25,1383.00,620.00,-782.00,3086.0000
1915,21.84,53.49,22.40,102651,13.771,29.061,-28.076,-0.051,-0.366,0.869,40.01,1330.00,621.00,-802.00,3083.0000
1986,21.86,53.47,22.40,102651,40.802,13.076,-2.458,-0.109,-0.384,1.083,39.92,1287.00,615.00,-850.00,3085.0000
2057,21.87,53.45,22.40,102651,-0.901,9.092,-13.786,-0.264,-0.334,1.223,40.01,1306.00,626.00,-802.00,3085.0000
2128,21.88,53.43,22.40,102653,-20.947,-0.542,-33.771,-0.198,-0.235,1.016,40.01,1301.00,665.00,-790.00,3071.0000
2204,21.88,53.41,22.40,102653,-25.160,-14.275,-11.481,-0.146,-0.464,0.963,40.15,1325.00,682.00,-760.00,3086.0000
2275,21.89,53.38,22.40,102652,10.122,3.069,14.901,-0.263,-0.494,0.940,40.15,1311.00,680.00,-765.00,3087.0000
2346,21.88,53.35,22.40,102652,21.870,-0.489,3.748,-0.109,-0.331,1.004,40.01,1306.00,690.00,-775.00,3082.0000
2417,21.90,53.38,22.40,102651,-22.427,-13.145,-3.176,-0.096,-0.260,0.905,40.44,1325.00,716.00,-735.00,3085.0000
2488,21.89,53.36,22.40,102651,1.939,-28.679,21.939,-0.081,-0.195,1.006,39.92,1330.00,757.00,-737.00,3086.0000
2564,21.90,53.36,22.39,102653,21.061,-58.053,46.679,-0.190,-0.246,0.915,39.92,1321.00,765.00,-727.00,3087.0000
2635,21.91,53.31,22.39,102653,45.107,-44.137,46.893,-0.269,-0.241,1.124,40.25,1270.00,791.00,-745.00,3083.0000
2706,21.90,53.29,22.40,102651,35.863,-44.412,47.344,-0.138,-0.183,0.983,39.92,1280.00,796.00,-745.00,3087.0000
2777,21.92,53.28,22.40,102651,2.397,-22.015,96.443,-0.148,-0.149,0.915,39.92,1311.00,752.00,-717.00,3083.0000
2875,21.89,53.34,22.40,102651,-17.878,-0.168,35.733,-0.021,-0.138,0.771,40.20,1373.00,703.00,-692.00,3085.0000
2946,21.90,53.26,22.40,102651,1.168,-21.351,65.305,-0.094,-0.066,0.893,40.01,1390.00,670.00,-697.00,3086.0000
3017,21.91,53.25,22.39,102652,-6.656,-36.962,62.153,-0.363,-0.077,1.009,40.15,1441.00,662.00,-670.00,3082.0000
3088,21.91,53.24,22.39,102652,-64.053,-5.634,58.634,-0.010,-0.281,0.974,40.15,1496.00,573.00,-633.00,3083.0000
3159,21.91,53.24,22.40,102650,50.168,-1.824,117.840,-0.016,-0.210,1.060,40.06,1447.00,457.00,-680.00,3082.0000
3235,21.91,53.24,22.40,102650,-3.985,18.496,87.863,0.014,-0.194,1.065,40.06,1436.00,331.00,-685.00,3081.0000
3306,21.91,53.22,22.40,102649,23.130,-0.580,79.382,-0.123,-0.171,0.938,40.25,1407.00,271.00,-702.00,3082.0000
3377,21.93,53.23,22.40,102649,-1.252,-3.145,59.947,-0.021,-0.214,0.981,40.06,1371.00,202.00,-702.00,3086.0000
3448,21.92,53.22,22.39,102652,-2.618,-5.740,50.870,-0.071,-0.269,0.986,40.20,1400.00,158.00,-702.00,3083.0000
3524,21.91,53.24,22.39,102652,-7.901,-15.954,32.206,0.037,-0.271,0.989,40.25,1395.00,163.00,-695.00,3086.0000
3595,21.93,53.20,22.39,102650,4.336,-24.809,11.000,0.056,-0.202,1.048,40.06,1395.00,173.00,-715.00,3086.0000
3666,21.92,53.18,22.39,102650,-2.588,-23.771,16.542,0.026,-0.205,1.026,40.06,1381.00,222.00,-725.00,3084.0000
3737,21.92,53.19,22.40,102652,30.718,-31.519,-15.626,0.029,-0.160,0.867,39.92,1350.00,251.00,-750.00,3083.0000
3808,21.92,53.17,22.40,102652,-6.893,7.748,22.802,-0.132,-0.215,1.214,40.15,1368.00,233.00,-735.00,3087.0000
3884,21.92,53.20,22.40,102651,-21.282,11.321,-18.359,-0.221,-0.305,0.948,40.25,1358.00,236.00,-745.00,3083.0000
3955,21.92,53.16,22.40,102651,54.389,17.382,25.611,-0.098,-0.208,1.124,40.25,1308.00,188.00,-770.00,3086.0000
4026,21.93,53.16,22.40,102653,-12.840,14.847,17.359,-0.171,-0.260,1.088,40.34,1332.00,152.00,-747.00,3082.0000
4097,21.94,53.17,22.40,102653,-23.015,25.550,-3.840,-0.076,-0.248,0.831,40.25,1322.00,142.00,-750.00,3085.0000
4168,21.93,53.15,22.40,102653,25.076,-8.420,16.145,0.131,-0.239,0.867,40.06,1296.00,113.00,-772.00,3085.0000
4262,21.89,53.23,22.40,102653,-12.565,-10.885,51.168,0.016,-0.247,1.024,40.39,1280.00,78.00,-772.00,3085.0000
4338,21.91,53.15,22.40,102650,-8.969,-16.748,50.855,-0.033,-0.175,0.971,40.34,1258.00,31.00,-777.00,3083.0000
4412,21.90,53.16,22.40,102650,9.168,-30.351,58.198,0.030,-0.173,1.058,40.15,1227.00,16.00,-797.00,3085.0000
4486,21.92,53.17,22.40,102656,-13.336,-10.977,95.603,-0.107,-0.177,1.105,39.87,1178.00,-47.00,-805.00,3087.0000
4565,21.90,53.16,22.40,102656,-31.130,-25.840,68.656,-0.287,-0.123,1.063,40.25,1165.00,-98.00,-790.00,3085.0000
4639,21.91,53.13,22.39,102656,-1.366,-22.130,50.763,-0.248,-0.102,0.957,40.06,1123.00,-125.00,-800.00,3086.0000
4713,21.91,53.12,22.39,102656,-14.679,0.595,13.733,-0.157,-0.176,0.894,40.25,1121.00,-142.00,-795.00,3084.0000
4787,21.92,53.10,22.39,102647,9.282,1.267,12.519,0.024,-0.198,0.845,40.53,1102.00,-135.00,-802.00,3087.0000
4861,21.92,53.11,22.39,102647,7.992,0.733,2.557,-0.113,-0.150,0.888,40.34,1076.00,-155.00,-810.00,3087.0000
4940,21.91,53.13,22.39,102639,-9.374,11.687,-12.420,-0.049,-0.177,1.081,40.34,1095.00,-183.00,-787.00,3083.0000
5014,21.91,53.11,22.39,102639,-2.588,8.626,6.099,-0.076,-0.174,0.995,40.01,1105.00,-188.00,-795.00,3084.0000
5088,21.92,53.15,22.39,102645,-14.267,4.985,-15.931,-0.008,-0.235,1.055,40.25,1121.00,-173.00,-775.00,3083.0000
5162,21.91,53.17,22.39,102645,27.763,-0.145,-2.885,0.081,-0.283,1.005,40.06,1090.00,-173.00,-792.00,3085.0000
5236,21.92,53.20,22.40,102653,25.802,-11.145,-11.985,-0.086,-0.253,1.016,40.20,1066.00,-150.00,-820.00,3082.0000
5315,21.91,53.22,22.40,102653,2.511,-2.336,-22.840,-0.001,-0.156,0.966,40.06,1080.00,-137.00,-817.00,3085.0000
5391,21.90,53.25,22.40,102649,10.702,-1.992,-12.412,0.108,-0.174,0.875,40.01,1077.00,-135.00,-835.00,3085.0000
5465,21.91,53.30,22.40,102649,3.206,1.053,-22.260,0.188,-0.193,0.988,40.25,1095.00,-127.00,-820.00,3086.0000
5539,21.92,53.33,22.41,102649,3.740,11.992,-11.053,0.099,-0.156,0.953,40.06,1095.00,-137.00,-822.00,3085.0000
5618,21.93,53.40,22.41,102649,-0.794,5.496,-18.542,0.087,-0.160,1.028,40.25,1116.00,-145.00,-805.00,3083.0000
5692,21.95,53.42,22.45,102649,3.931,8.756,-10.115,0.108,-0.213,0.966,40.34,1108.00,-156.00,-810.00,3086.0000
5766,21.94,53.47,22.45,102649,2.809,14.763,-37.198,-0.069,-0.286,1.055,39.92,1160.00,-152.00,-782.00,3086.0000
5840,21.95,53.50,22.47,102647,-18.191,22.511,-67.046,-0.099,-0.271,1.092,40.15,1251.00,-117.00,-750.00,3086.0000
5914,21.97,53.54,22.47,102647,-27.168,27.458,-68.969,-0.037,-0.242,0.966,39.92,1303.00,-93.00,-705.00,3085.0000
5993,21.96,53.63,22.48,102648,19.748,18.969,-40.198,0.020,-0.296,0.934,40.06,1316.00,-70.00,-727.00,3086.0000
6067,21.97,53.67,22.48,102648,20.992,16.000,-31.672,0.018,-0.260,0.942,40.15,1311.00,-62.00,-725.00,3085.0000
6141,21.98,53.69,22.49,102651,14.702,2.748,-36.542,0.003,-0.258,0.960,40.20,1345.00,-18.00,-715.00,3086.0000
6215,22.00,53.73,22.49,102651,10.198,-0.405,-46.626,0.092,-0.285,0.959,40.25,1356.00,26.00,-727.00,3086.0000
6289,22.00,53.77,22.50,102652,21.115,-6.939,-34.290,0.042,-0.274,1.064,40.15,1358.00,57.00,-737.00,3085.0000
6368,22.01,53.81,22.52,102653,5.847,9.573,-49.214,-0.044,-0.278,0.973,40.34,1373.00,117.00,-737.00,3086.0000
6442,22.02,53.85,22.52,102653,14.038,9.962,-70.878,-0.092,-0.307,1.011,40.25,1407.00,173.00,-730.00,3087.0000
6516,22.02,53.90,22.54,102655,-10.588,32.855,-74.695,-0.041,-0.359,1.006,40.25,1426.00,207.00,-705.00,3086.0000
6590,22.02,53.93,22.54,102655,16.305,32.992,-69.420,-0.087,-0.315,0.904,40.25,1426.00,258.00,-722.00,3085.0000
6669,22.03,53.95,22.54,102654,12.809,22.756,-72.496,-0.143,-0.280,0.988,40.25,1450.00,336.00,-722.00,3084.0000
6743,22.05,53.98,22.54,102654,-4.450,23.511,-91.145,-0.139,-0.236,0.872,40.34,1457.00,437.00,-682.00,3086.0000
6817,22.05,54.04,22.54,102655,-2.649,20.908,-75.290,-0.094,-0.238,0.982,40.06,1478.00,488.00,-705.00,3083.0000
6891,22.07,54.10,22.54,102655,-18.427,27.901,-79.626,-0.203,-0.226,0.983,40.34,1488.00,548.00,-682.00,3084.0000
6979,22.05,54.23,22.55,102656,17.359,20.023,-72.046,-0.210,-0.256,1.036,40.39,1475.00,628.00,-690.00,3085.0000
7073,22.04,54.29,22.55,102656,2.267,20.344,-87.389,-0.148,-0.310,0.863,40.15,1436.00,716.00,-695.00,3086.0000
7149,22.05,54.29,22.54,102652,37.214,40.382,-76.382,-0.206,-0.348,0.889,40.25,1337.00,745.00,-760.00,3086.0000
7223,22.06,54.26,22.54,102652,72.824,22.771,-70.809,-0.167,-0.249,0.839,40.25,1248.00,781.00,-792.00,3085.0000
7297,22.07,54.29,22.55,102654,11.931,20.725,-64.595,-0.060,-0.237,0.913,40.25,1198.00,806.00,-832.00,3083.0000
7376,22.08,54.36,22.55,102654,5.718,34.611,-48.176,-0.218,-0.228,1.005,40.39,1176.00,791.00,-830.00,3085.0000
7450,22.08,54.40,22.54,102656,-25.511,25.435,-54.832,-0.158,-0.261,1.018,40.20,1186.00,817.00,-827.00,3079.0000
7524,22.08,54.46,22.54,102656,-12.511,17.809,-56.679,-0.099,-0.336,0.990,40.44,1167.00,835.00,-825.00,3084.0000
7598,22.09,54.46,22.55,102655,17.405,3.130,-60.954,0.016,-0.313,0.858,40.34,1123.00,883.00,-830.00,3084.0000
7672,22.10,54.49,22.55,102655,8.206,9.466,-56.992,-0.110,-0.298,0.948,40.34,1090.00,886.00,-852.00,3086.0000
7751,22.09,54.51,22.55,102655,-8.748,14.748,-61.863,-0.199,-0.272,0.951,40.25,1048.00,905.00,-857.00,3084.0000
7825,22.10,54.54,22.55,102655,5.618,6.359,-20.061,-0.041,-0.271,0.917,40.34,1022.00,897.00,-842.00,3087.0000
7899,22.11,54.54,22.55,102651,24.603,9.450,8.107,-0.167,-0.303,1.055,40.34,1008.00,891.00,-860.00,3085.0000
7973,22.12,54.56,22.55,102651,12.038,-3.649,21.954,-0.291,-0.305,1.114,40.44,1001.00,897.00,-875.00,3083.0000
8047,22.11,54.57,22.55,102656,-14.275,-18.863,1.328,0.003,-0.350,0.939,40.34,1035.00,925.00,-865.00,3083.0000
8126,22.12,54.61,22.55,102656,9.115,-12.695,22.336,0.034,-0.358,0.914,40.34,1035.00,927.00,-837.00,3085.0000
8200,22.13,54.63,22.56,102652,-14.435,8.160,13.985,-0.102,-0.333,1.019,40.25,1058.00,897.00,-865.00,3085.0000
8274,22.12,54.67,22.56,102652,-14.267,11.748,14.893,-0.204,-0.240,1.039,40.15,1087.00,881.00,-860.00,3085.0000
8348,22.13,54.69,22.56,102656,-2.710,-2.038,4.427,-0.215,-0.161,1.001,40.39,1105.00,873.00,-840.00,3085.0000
8427,22.13,54.75,22.56,102656,-2.450,1.267,-10.092,-0.175,-0.141,0.919,40.25,1092.00,888.00,-840.00,3087.0000
8501,22.14,54.74,22.57,102654,3.221,6.992,0.962,-0.225,-0.127,0.974,40.25,1085.00,873.00,-850.00,3085.0000
8575,22.14,54.76,22.57,102654,-4.977,11.145,-11.901,-0.211,-0.104,0.963,40.25,1105.00,878.00,-867.00,3087.0000
8649,22.15,54.79,22.58,102653,-8.069,6.015,4.008,-0.185,-0.071,0.921,40.39,1123.00,840.00,-852.00,3085.0000
8723,22.15,54.84,22.58,102653,-1.649,0.328,17.489,-0.203,-0.097,1.000,40.39,1123.00,845.00,-840.00,3083.0000
8802,22.16,54.87,22.60,102653,3.695,-2.466,23.084,-0.184,-0.149,0.979,40.39,1131.00,845.00,-852.00,3085.0000
8876,22.17,54.88,22.61,102649,-1.725,1.748,20.695,-0.160,-0.196,0.951,40.25,1147.00,811.00,-855.00,3083.0000
8950,22.17,54.89,22.61,102649,8.298,7.565,21.305,-0.189,-0.173,0.963,40.34,1155.00,788.00,-862.00,3083.0000
9024,22.19,54.94,22.63,102647,0.679,8.084,13.672,-0.194,-0.140,0.973,40.34,1167.00,767.00,-860.00,3087.0000
9098,22.19,54.98,22.63,102647,-4.008,4.855,18.878,-0.288,-0.154,1.077,40.53,1198.00,760.00,-850.00,3087.0000
9177,22.18,55.01,22.64,102653,-19.641,-9.305,18.160,-0.239,-0.122,0.990,40.34,1236.00,747.00,-832.00,3085.0000
9251,22.20,55.05,22.64,102653,-26.183,-14.275,26.924,-0.291,-0.152,1.051,40.25,1265.00,765.00,-805.00,3086.0000
9325,22.20,55.09,22.65,102660,-24.618,-15.573,28.359,-0.209,-0.174,0.942,40.44,1316.00,752.00,-770.00,3085.0000
9399,22.23,55.09,22.65,102660,-3.672,-24.588,34.809,-0.252,-0.117,1.005,40.44,1335.00,757.00,-757.00,3085.0000
9478,22.21,55.15,22.66,102656,0.344,-33.557,56.786,-0.172,-0.089,0.938,40.39,1373.00,752.00,-725.00,3088.0000
9552,22.22,55.14,22.66,102656,-2.092,-33.282,81.397,-0.175,-0.025,0.983,40.39,1423.00,695.00,-720.00,3086.0000
9628,22.23,55.17,22.67,102657,-12.954,-29.649,91.145,-0.146,-0.047,0.948,40.53,1465.00,621.00,-692.00,3085.0000
9808,22.17,55.29,22.68,102657,14.611,-25.893,79.733,-0.107,-0.277,0.957,40.39,1493.00,481.00,-677.00,3086.0000
9982,22.15,55.24,22.68,102656,-7.878,-19.351,2.817,-0.060,-0.299,0.834,40.34,1433.00,430.00,-712.00,3085.0000
10378,22.08,55.38,22.68,102657,-19.687,1.137,48.382,-0.001,-0.220,1.000,40.39,1431.00,220.00,-667.00,3087.0000
10539,22.09,55.49,22.68,102654,0.511,-11.328,58.481,-0.110,-0.274,1.151,40.39,1405.00,130.00,-638.00,3086.0000
10656,22.12,55.46,22.69,102654,-7.794,-24.786,28.779,-0.080,-0.191,1.010,40.25,1383.00,117.00,-650.00,3086.0000
10730,22.16,55.42,22.69,102654,-1.687,-6.176,35.832,-0.164,-0.113,1.083,40.39,1381.00,93.00,-633.00,3085.0000
10804,22.21,55.44,22.69,102653,-13.084,0.969,21.618,-0.064,-0.113,0.848,40.44,1378.00,86.00,-603.00,3088.0000
10883,22.20,55.48,22.69,102653,-10.176,-3.664,2.916,0.050,-0.114,0.820,40.34,1381.00,86.00,-611.00,3083.0000
10957,22.22,55.47,22.69,102655,-13.198,7.977,15.855,0.058,-0.142,0.984,40.34,1378.00,81.00,-598.00,3086.0000
11031,22.25,55.50,22.69,102655,-20.099,-8.496,-7.588,0.039,-0.207,0.984,40.25,1383.00,96.00,-583.00,3086.0000
11105,22.26,55.51,22.70,102651,43.000,-18.718,25.198,-0.077,-0.243,1.133,40.39,1330.00,72.00,-623.00,3084.0000
11184,22.25,55.55,22.70,102651,27.947,-6.229,44.115,-0.189,-0.221,1.227,40.34,1291.00,60.00,-621.00,3085.0000
11258,22.26,55.53,22.71,102657,16.061,13.985,48.000,-0.070,-0.156,1.002,40.25,1233.00,-13.00,-665.00,3083.0000
11332,22.27,55.59,22.71,102657,-6.534,10.832,42.321,-0.138,-0.087,0.831,40.44,1220.00,-50.00,-657.00,3084.0000
11406,22.28,55.64,22.72,102656,-2.321,-12.069,46.809,-0.144,-0.066,0.748,40.34,1196.00,-83.00,-662.00,3087.0000
11480,22.29,55.62,22.72,102656,12.695,-19.382,36.183,-0.094,-0.079,0.884,40.44,1171.00,-106.00,-692.00,3086.0000
11571,22.27,55.71,22.73,102654,-10.794,-10.267,55.015,-0.034,-0.074,1.029,40.39,1123.00,-137.00,-715.00,3085.0000
11658,22.26,55.70,22.73,102654,-22.962,-7.550,61.962,-0.159,-0.104,1.209,40.20,1090.00,-207.00,-707.00,3085.0000
11732,22.27,55.71,22.73,102654,-9.298,-11.046,95.557,-0.190,-0.029,1.267,40.44,1042.00,-232.00,-707.00,3083.0000
11806,22.28,55.72,22.73,102654,-21.099,-4.076,61.061,-0.135,0.006,0.987,40.34,1017.00,-287.00,-707.00,3087.0000
11885,22.28,55.80,22.73,102653,-17.519,2.038,64.382,-0.013,-0.036,0.774,40.20,1008.00,-318.00,-707.00,3087.0000
11959,22.31,55.80,22.73,102653,2.916,-7.626,46.344,0.006,-0.078,0.825,40.39,972.00,-341.00,-737.00,3088.0000
12033,22.30,55.81,22.74,102653,-2.947,-11.985,29.947,0.016,-0.068,0.885,40.44,948.00,-321.00,-765.00,3085.0000
12107,22.31,55.81,22.74,102653,-10.557,-13.603,17.824,-0.035,-0.095,1.024,40.44,965.00,-302.00,-755.00,3086.0000
12181,22.32,55.81,22.74,102653,-8.885,-11.443,-6.603,-0.082,-0.145,1.232,40.44,970.00,-280.00,-787.00,3087.0000
12260,22.31,55.84,22.74,102653,-0.557,-13.160,30.802,-0.344,-0.186,1.157,40.39,970.00,-256.00,-785.00,3085.0000
12334,22.32,55.80,22.75,102657,-4.496,-2.198,29.076,-0.099,-0.183,0.944,40.25,931.00,-263.00,-782.00,3088.0000
12408,22.33,55.78,22.75,102657,19.840,-3.053,37.916,-0.159,-0.080,0.760,40.53,866.00,-261.00,-782.00,3087.0000
12482,22.33,55.80,22.75,102654,17.542,-9.534,34.618,-0.070,-0.028,0.924,40.67,828.00,-256.00,-797.00,3086.0000
12556,22.33,55.82,22.75,102654,4.389,-9.038,46.779,-0.045,0.008,0.951,40.34,768.00,-243.00,-815.00,3088.0000
12635,22.33,55.83,22.76,102654,-2.580,-10.351,65.687,-0.015,-0.021,1.038,40.67,717.00,-241.00,-812.00,3083.0000
12709,22.33,55.82,22.76,102654,-11.588,-6.794,83.641,-0.176,-0.036,1.134,40.39,645.00,-238.00,-807.00,3083.0000
12783,22.34,55.80,22.76,102655,-17.282,-4.298,97.198,-0.108,-0.076,1.017,40.53,573.00,-258.00,-805.00,3087.0000
12857,22.35,55.81,22.76,102652,23.656,-18.344,111.718,-0.270,-0.023,1.102,40.39,465.00,-232.00,-817.00,3088.0000
12936,22.32,55.85,22.76,102651,-29.603,9.786,106.496,-0.167,-0.015,0.971,40.39,405.00,-227.00,-802.00,3087.0000
13010,22.35,55.81,22.76,102656,-6.656,5.977,97.893,-0.078,-0.020,0.803,40.25,331.00,-215.00,-792.00,3088.0000
13084,22.34,55.84,22.76,102656,14.061,2.870,88.267,-0.087,-0.069,0.900,40.44,263.00,-197.00,-792.00,3083.0000
13158,22.34,55.88,22.76,102661,-16.702,1.977,59.893,-0.057,-0.109,0.922,40.25,235.00,-166.00,-790.00,3086.0000
13232,22.34,55.90,22.76,102661,-6.924,-4.565,40.153,-0.195,-0.149,1.123,40.53,225.00,-140.00,-780.00,3085.0000
13326,22.32,55.93,22.76,102658,2.260,17.534,36.771,-0.130,-0.126,1.037,40.53,182.00,-135.00,-770.00,3086.0000
13402,22.33,55.92,22.76,102658,5.473,1.405,4.817,-0.239,-0.100,1.027,40.44,157.00,-120.00,-757.00,3083.0000
13476,22.33,55.93,22.76,102659,11.580,9.153,20.267,-0.280,-0.085,1.038,40.39,105.00,-120.00,-750.00,3087.0000
13550,22.34,55.95,22.76,102659,6.038,7.695,11.748,-0.198,-0.090,0.984,40.44,63.00,-130.00,-727.00,3086.0000
13624,22.35,55.95,22.76,102658,-6.176,7.015,5.099,-0.204,-0.088,0.835,40.44,52.00,-145.00,-720.00,3087.0000
13703,22.35,55.98,22.76,102658,21.130,8.893,9.115,-0.226,-0.081,0.869,40.34,-11.00,-156.00,-677.00,3085.0000
13777,22.35,55.99,22.76,102656,12.885,11.183,6.878,-0.157,-0.073,0.797,40.67,-42.00,-168.00,-660.00,3084.0000
13851,22.35,55.99,22.76,102656,-6.962,10.863,10.298,-0.258,-0.064,0.945,40.20,-71.00,-168.00,-662.00,3088.0000
13925,22.36,55.98,22.76,102653,-11.771,-12.397,10.229,-0.200,-0.013,0.893,40.44,-71.00,-166.00,-647.00,3087.0000
14004,22.35,56.02,22.76,102653,-14.038,7.573,29.244,-0.242,0.042,0.969,40.58,-95.00,-158.00,-638.00,3085.0000
14078,22.36,55.96,22.76,102658,-16.542,10.130,-2.328,-0.234,-0.010,0.956,40.53,-83.00,-168.00,-613.00,3085.0000
14152,22.37,55.96,22.76,102658,-2.527,-2.145,-5.389,-0.321,0.013,0.921,40.58,-100.00,-171.00,-608.00,3085.0000
14226,22.36,56.00,22.76,102655,-7.076,-11.832,-14.588,-0.272,0.029,0.911,40.34,-100.00,-171.00,-596.00,3086.0000
14300,22.36,56.00,22.76,102655,-8.321,-15.580,-27.389,-0.211,-0.089,0.787,40.25,-76.00,-207.00,-606.00,3088.0000
14379,22.34,56.04,22.77,102657,15.336,-13.473,-17.809,-0.320,-0.116,0.972,40.39,-78.00,-195.00,-578.00,3083.0000
14455,22.37,56.02,22.77,102657,12.763,-20.435,-23.954,-0.266,-0.155,0.979,40.34,-76.00,-202.00,-563.00,3087.0000
14529,22.36,56.04,22.77,102657,-11.878,-4.420,-11.137,-0.257,-0.142,1.097,40.53,-52.00,-205.00,-571.00,3085.0000
14603,22.37,56.02,22.77,102657,-21.847,-11.656,-17.672,-0.174,-0.157,1.036,40.39,-23.00,-193.00,-568.00,3088.0000
14682,22.37,56.05,22.77,102659,-18.443,-5.649,-8.359,-0.196,-0.167,1.123,40.34,8.00,-186.00,-581.00,3086.0000
14756,22.37,56.04,22.77,102659,-23.863,-6.840,-19.756,-0.107,-0.253,1.050,40.67,50.00,-163.00,-586.00,3087.0000
14830,22.38,56.06,22.77,102659,2.985,-2.985,-19.458,-0.049,-0.376,1.069,40.39,61.00,-147.00,-581.00,3087.0000
14904,22.37,56.07,22.77,102659,12.641,-2.969,-1.038,-0.099,-0.310,1.119,40.34,40.00,-171.00,-571.00,3087.0000
14978,22.37,56.07,22.78,102660,-10.504,5.992,-25.344,-0.162,-0.225,1.090,40.67,57.00,-193.00,-586.00,3086.0000
15057,22.36,56.13,22.78,102660,2.626,14.901,-17.527,0.026,-0.228,0.950,40.67,55.00,-233.00,-566.00,3085.0000
15131,22.36,56.11,22.79,102660,9.458,27.885,-30.298,-0.009,-0.247,1.000,40.58,28.00,-271.00,-563.00,3085.0000
15205,22.36,56.13,22.79,102660,4.924,22.092,-41.550,-0.109,-0.260,0.928,40.44,18.00,-297.00,-561.00,3088.0000
15279,22.36,56.17,22.79,102663,23.519,14.267,-48.107,-0.087,-0.222,0.943,40.34,35.00,-292.00,-538.00,3087.0000
15353,22.37,56.15,22.79,102663,18.458,16.328,-75.649,-0.099,-0.182,0.854,40.39,78.00,-290.00,-508.00,3085.0000
15432,22.37,56.22,22.79,102660,3.130,37.557,-59.366,-0.106,-0.163,1.041,40.34,165.00,-305.00,-468.00,3085.0000
15506,22.38,56.17,22.79,102660,-7.687,38.290,-50.397,-0.165,-0.180,0.917,40.39,245.00,-331.00,-448.00,3086.0000
15580,22.37,56.19,22.79,102661,-13.321,32.618,-58.748,-0.196,-0.233,0.965,40.34,336.00,-341.00,-426.00,3085.0000
15654,22.38,56.21,22.79,102661,22.496,26.649,-37.771,-0.125,-0.211,0.913,40.67,371.00,-360.00,-391.00,3086.0000
15733,22.37,56.23,22.79,102662,12.313,20.611,-33.374,-0.251,-0.179,1.085,40.39,386.00,-370.00,-381.00,3087.0000
15809,22.38,56.23,22.79,102667,-0.840,16.840,-28.084,-0.198,-0.181,0.947,40.39,407.00,-382.00,-356.00,3086.0000
15883,22.38,56.25,22.79,102667,0.832,12.588,-9.366,-0.254,-0.229,1.020,40.25,443.00,-388.00,-363.00,3088.0000
15957,22.38,56.27,22.79,102663,5.809,5.527,-1.779,-0.205,-0.205,0.985,40.72,433.00,-375.00,-351.00,3085.0000
16031,22.38,56.30,22.79,102663,18.565,-0.672,-3.641,-0.296,-0.197,0.984,40.53,438.00,-365.00,-341.00,3087.0000
16126,22.36,56.37,22.80,102660,3.405,6.214,0.702,-0.127,-0.238,0.949,40.58,405.00,-382.00,-351.00,3085.0000
16202,22.38,56.34,22.80,102660,2.008,7.916,15.282,-0.230,-0.249,0.987,40.39,393.00,-370.00,-346.00,3087.0000
16276,22.37,56.34,22.80,102663,9.382,2.763,13.176,-0.199,-0.234,0.975,40.67,378.00,-360.00,-348.00,3086.0000
16350,22.38,56.35,22.80,102663,20.015,3.573,15.107,-0.279,-0.190,0.980,40.53,355.00,-360.00,-338.00,3088.0000
16429,22.37,56.38,22.80,102663,20.969,-16.985,9.427,-0.295,-0.141,0.996,40.34,337.00,-348.00,-341.00,3085.0000
16503,22.37,56.36,22.80,102663,7.046,-22.260,27.534,-0.233,-0.141,0.964,40.58,292.00,-310.00,-378.00,3087.0000
16577,22.39,56.39,22.80,102664,15.351,-33.382,32.183,-0.234,-0.043,0.979,40.25,240.00,-251.00,-403.00,3088.0000
16651,22.39,56.41,22.80,102664,19.267,-35.908,80.458,-0.037,0.053,1.080,40.67,162.00,-193.00,-418.00,3087.0000
16725,22.38,56.44,22.80,102659,-29.351,-12.603,135.298,-0.118,-0.162,1.049,40.53,133.00,-130.00,-428.00,3083.0000
16804,22.39,56.44,22.80,102659,-12.405,-5.489,131.344,-0.042,-0.123,0.902,40.44,60.00,-57.00,-426.00,3086.0000
16878,22.38,56.47,22.80,102662,-35.366,4.740,127.908,-0.161,-0.060,0.924,40.53,52.00,-1.00,-436.00,3085.0000
16952,22.39,56.45,22.80,102662,25.298,12.885,60.679,-0.204,-0.105,0.940,40.44,18.00,18.00,-398.00,3083.0000
17026,22.39,56.48,22.80,102663,1.237,20.160,10.275,-0.196,-0.014,1.006,40.58,1.00,21.00,-393.00,3086.0000
17100,22.39,56.49,22.80,102663,15.466,12.702,6.298,-0.185,0.053,1.036,40.67,0.00,8.00,-391.00,3087.0000
17179,22.40,56.52,22.80,102661,10.137,15.885,0.053,-0.178,-0.022,0.958,40.44,-3.00,3.00,-391.00,3088.0000
17253,22.39,56.50,22.80,102661,3.191,22.817,-13.214,-0.188,0.020,0.944,40.53,-11.00,-16.00,-361.00,3087.0000
17327,22.41,56.52,22.80,102660,-1.359,25.931,-9.099,-0.265,0.012,0.994,40.39,-6.00,-38.00,-363.00,3088.0000
17401,22.38,56.50,22.80,102660,-1.832,16.206,-10.191,-0.286,-0.035,1.010,40.44,1.00,-57.00,-348.00,3086.0000
17475,22.39,56.53,22.80,102660,3.206,14.550,1.168,-0.288,-0.019,1.023,40.34,-11.00,-70.00,-361.00,3088.0000
17554,22.39,56.56,22.80,102660,-11.191,17.382,-8.275,-0.292,-0.035,1.045,40.58,1.00,-81.00,-368.00,3086.0000
17628,22.39,56.54,22.80,102660,4.198,13.924,-1.779,-0.286,-0.040,1.010,40.44,3.00,-93.00,-373.00,3087.0000
17702,22.39,56.55,22.80,102660,-14.771,12.947,-12.382,-0.300,-0.074,0.981,40.25,18.00,-98.00,-368.00,3087.0000
17776,22.39,56.57,22.80,102660,-7.985,-3.954,-22.053,-0.297,-0.071,0.963,40.39,37.00,-98.00,-373.00,3087.0000
17855,22.39,56.61,22.80,102660,-0.031,-17.855,-27.977,-0.268,-0.087,0.875,40.67,57.00,-98.00,-393.00,3087.0000
17929,22.39,56.63,22.80,102660,3.695,-14.931,-22.763,-0.254,-0.055,0.920,40.44,73.00,-111.00,-401.00,3085.0000
18003,22.40,56.64,22.80,102660,13.099,-9.519,-18.473,-0.263,-0.064,0.954,40.67,88.00,-111.00,-411.00,3085.0000
18077,22.39,56.67,22.80,102662,3.336,-10.908,-11.710,-0.247,-0.024,0.958,40.53,86.00,-108.00,-418.00,3088.0000
18151,22.39,56.70,22.80,102662,7.397,-5.420,2.092,-0.251,-0.079,0.963,40.53,83.00,-113.00,-413.00,3087.0000
18230,22.40,56.71,22.81,102657,-3.702,8.015,8.687,-0.241,-0.095,0.965,40.44,86.00,-108.00,-416.00,3085.0000
18304,22.39,56.72,22.81,102657,-4.733,13.336,2.595,-0.219,-0.128,0.926,40.67,95.00,-116.00,-421.00,3085.0000
18378,22.41,56.73,22.82,102660,8.794,15.710,-3.160,-0.253,-0.098,0.973,40.44,57.00,-127.00,-411.00,3088.0000
18452,22.41,56.74,22.82,102660,10.740,14.038,-0.435,-0.327,-0.053,1.062,40.67,68.00,-125.00,-406.00,3087.0000
18526,22.41,56.77,22.82,102662,6.863,-7.672,-12.481,-0.204,-0.066,0.867,40.44,83.00,-116.00,-403.00,3086.0000
18605,22.39,56.82,22.82,102662,12.290,-5.038,-9.389,-0.261,-0.075,0.984,40.39,66.00,-125.00,-413.00,3086.0000
18679,22.39,56.77,22.82,102658,-9.046,6.084,-1.924,-0.299,-0.049,1.023,40.53,91.00,-117.00,-426.00,3086.0000
18812,22.35,56.89,22.82,102661,2.542,-12.809,-1.542,-0.281,-0.057,1.041,40.58,100.00,-88.00,-446.00,3086.0000
18987,22.29,56.92,22.82,102659,12.817,-0.290,-28.489,-0.160,-0.105,0.984,40.25,153.00,-113.00,-461.00,3087.0000
19407,22.21,56.98,22.82,102661,22.603,54.496,-121.901,-0.240,-0.259,1.067,40.53,641.00,-360.00,-285.00,3086.0000
19585,22.25,57.03,22.83,102663,9.893,22.947,3.626,-0.456,-0.310,0.794,40.34,741.00,-307.00,-207.00,3087.0000
19757,22.23,57.11,22.83,102664,1.450,35.748,14.275,-0.517,-0.421,0.720,40.53,756.00,-280.00,-170.00,3085.0000
19831,22.29,57.06,22.84,102659,17.351,11.947,29.550,-0.437,-0.328,0.721,40.67,703.00,-280.00,-192.00,3086.0000
19905,22.31,57.09,22.84,102659,-26.771,8.779,9.427,-0.497,-0.270,0.938,40.58,657.00,-287.00,-225.00,3088.0000
19984,22.33,57.16,22.84,102658,63.687,0.305,59.420,-0.364,-0.191,0.670,40.58,552.00,-313.00,-257.00,3086.0000
20058,22.36,57.21,22.84,102658,-27.313,39.053,26.595,-0.689,-0.243,0.856,40.53,525.00,-341.00,-242.00,3086.0000
20132,22.37,57.18,22.84,102658,-59.389,36.168,26.450,-0.545,-0.206,0.835,40.67,532.00,-343.00,-235.00,3085.0000
20206,22.37,57.16,22.84,102658,-94.924,44.405,17.275,-0.628,-0.323,0.747,40.53,571.00,-350.00,-235.00,3087.0000
20285,22.37,57.14,22.84,102662,-75.397,23.679,19.771,-0.641,-0.319,0.691,40.67,585.00,-355.00,-255.00,3085.0000
20359,22.39,57.14,22.84,102662,-63.695,4.267,19.336,-0.651,-0.400,0.647,40.39,612.00,-338.00,-317.00,3086.0000
20433,22.40,57.14,22.85,102657,-52.809,8.855,58.420,-0.579,-0.401,0.520,40.67,597.00,-343.00,-438.00,3087.0000
20521,22.39,57.11,22.85,102657,-19.420,3.817,66.458,-0.749,-0.433,0.427,40.58,573.00,-427.00,-568.00,3086.0000
20599,22.39,57.11,22.85,102660,-12.366,-21.427,72.672,-0.862,-0.365,0.758,40.67,518.00,-537.00,-707.00,3086.0000
20678,22.39,57.09,22.85,102661,-39.893,-18.840,85.023,-0.990,-0.218,0.599,40.67,470.00,-711.00,-892.00,3087.0000
20752,22.40,57.09,22.85,102661,-19.519,-11.252,59.000,-0.805,-0.200,0.586,40.58,311.00,-876.00,-910.00,3087.0000
20826,22.41,57.07,22.84,102662,-14.718,-40.878,70.603,-1.010,-0.255,0.578,40.58,120.00,-1043.00,-780.00,3087.0000
20900,22.41,57.08,22.84,102662,-1.458,-2.855,29.153,-0.638,0.086,0.455,40.67,-21.00,-1070.00,-598.00,3088.0000
20974,22.41,57.08,22.84,102662,-22.099,-0.099,24.053,-0.970,0.148,0.656,40.53,-117.00,-1098.00,-483.00,3087.0000
21053,22.41,57.14,22.84,102662,-27.137,18.962,17.137,-0.792,0.068,0.705,40.53,-148.00,-1130.00,-426.00,3086.0000
21127,22.41,57.13,22.84,102663,22.641,-1.702,3.298,-1.034,-0.316,0.749,40.58,-198.00,-1086.00,-386.00,3085.0000
21201,22.40,57.16,22.84,102663,-25.237,-97.160,98.985,-0.523,0.086,-0.295,40.53,-388.00,-827.00,-471.00,3088.0000
21275,22.39,57.17,22.83,102663,-27.649,-250.137,181.679,-0.720,0.028,0.385,40.72,-545.00,-398.00,-611.00,3087.0000
21354,22.40,57.21,22.83,102663,140.534,-84.962,22.718,-0.167,0.333,0.718,40.77,-623.00,-307.00,-461.00,3088.0000
21428,22.41,57.24,22.83,102663,-102.855,22.649,-37.305,-0.500,0.084,0.988,40.58,-530.00,-401.00,-538.00,3087.0000
21502,22.42,57.26,22.83,102663,30.115,-39.153,11.580,-0.178,0.120,0.724,40.67,-558.00,-360.00,-458.00,3085.0000
21576,22.41,57.29,22.83,102666,8.489,-10.397,97.573,-0.284,0.243,1.020,40.91,-631.00,-243.00,-346.00,3086.0000
21650,22.41,57.31,22.83,102666,8.947,-75.962,55.725,-0.088,0.336,0.789,40.44,-597.00,-47.00,-232.00,3087.0000
21729,22.41,57.34,22.82,102664,40.023,-92.656,29.145,-0.420,0.325,1.207,40.44,-451.00,57.00,-180.00,3087.0000
21803,22.40,57.38,22.82,102664,-8.252,-25.031,-51.374,0.190,0.503,1.095,40.53,-337.00,18.00,-230.00,3083.0000
21877,22.41,57.39,22.82,102669,-13.107,-29.015,-27.443,-0.088,0.298,0.887,40.67,-237.00,-11.00,-247.00,3088.0000
21951,22.41,57.41,22.82,102669,-30.840,7.427,-48.191,0.118,0.456,0.805,40.53,-191.00,-45.00,-237.00,3085.0000
22030,22.41,57.44,22.82,102661,-15.824,2.511,-22.053,0.136,0.383,0.875,40.86,-128.00,-23.00,-245.00,3086.0000
22104,22.40,57.46,22.82,102661,16.053,4.382,-13.832,0.133,0.408,0.836,40.67,-47.00,28.00,-237.00,3085.0000
22178,22.39,57.49,22.82,102663,57.168,13.947,-37.382,-0.103,0.392,1.137,40.44,-23.00,113.00,-270.00,3085.0000
22252,22.39,57.51,22.82,102663,48.908,-10.924,-4.153,-0.139,0.621,1.339,40.39,1.00,197.00,-300.00,3085.0000
22326,22.39,57.52,22.81,102660,-56.466,6.359,-21.504,0.051,0.483,1.021,40.44,63.00,241.00,-336.00,3085.0000
22420,22.37,57.61,22.81,102660,56.656,35.450,-88.687,0.081,0.284,0.636,40.34,21.00,163.00,-336.00,3087.0000
22496,22.39,57.59,22.81,102668,58.221,38.015,-133.260,-0.325,0.495,1.399,40.58,60.00,120.00,-338.00,3087.0000
22570,22.38,57.59,22.81,102668,-69.557,-7.573,-101.794,-0.140,0.342,0.757,40.44,208.00,145.00,-401.00,3086.0000
22644,22.38,57.61,22.81,102666,-44.084,-9.931,-40.038,-0.257,0.435,0.598,40.53,326.00,178.00,-461.00,3087.0000
22718,22.39,57.62,22.81,102666,62.305,-12.168,-100.863,-0.406,0.336,0.642,40.25,258.00,125.00,-386.00,3087.0000
22797,22.38,57.67,22.81,102662,45.519,43.008,-86.679,-0.737,0.171,0.882,40.39,230.00,70.00,-202.00,3088.0000
22871,22.39,57.67,22.81,102662,-119.351,62.206,-17.069,-0.513,0.205,0.633,40.44,253.00,103.00,-190.00,3088.0000
22945,22.39,57.67,22.82,102665,-2.718,-166.450,-53.939,0.698,0.263,-0.510,40.67,256.00,158.00,-237.00,3087.0000
23019,22.39,57.69,22.82,102665,-121.618,47.649,-29.282,-0.404,0.142,0.789,40.34,352.00,135.00,-250.00,3086.0000
23098,22.38,57.69,22.81,102668,6.832,-35.618,32.603,-0.154,0.138,0.596,40.06,300.00,152.00,-267.00,3088.0000
23172,22.38,57.69,22.81,102668,-95.489,61.779,46.382,0.048,0.078,0.275,40.06,376.00,166.00,-282.00,3088.0000
23246,22.39,57.71,22.81,102664,-0.427,94.458,67.939,-0.070,-0.567,1.366,40.01,347.00,207.00,-305.00,3088.0000
23320,22.38,57.73,22.81,102664,7.824,-38.595,-28.733,-0.195,0.180,0.373,40.34,352.00,191.00,-272.00,3088.0000
23394,22.39,57.76,22.81,102664,-5.092,32.191,2.046,0.287,0.336,0.262,40.06,350.00,188.00,-272.00,3087.0000
23473,22.38,57.80,22.81,102664,1.748,2.275,0.382,-0.022,0.013,0.897,40.20,350.00,195.00,-270.00,3085.0000
23547,22.38,57.84,22.81,102665,1.779,-9.008,-1.733,-0.135,-0.014,1.074,40.01,345.00,207.00,-277.00,3086.0000
23623,22.38,57.91,22.81,102665,-63.649,-70.740,-14.771,-0.292,0.081,1.496,40.15,350.00,220.00,-292.00,3087.0000
23697,22.37,57.95,22.81,102664,26.153,17.656,0.443,-0.192,0.106,1.096,40.06,345.00,236.00,-297.00,3085.0000
23771,22.38,57.98,22.81,102664,7.511,-5.321,5.183,0.037,-0.009,0.801,40.01,352.00,236.00,-307.00,3088.0000
23850,22.37,58.03,22.81,102665,1.626,-7.756,2.214,-0.103,-0.016,1.066,40.01,345.00,243.00,-310.00,3086.0000
23924,22.38,58.02,22.81,102668,0.557,-6.206,0.527,-0.033,-0.009,1.017,39.87,347.00,258.00,-310.00,3086.0000
23998,22.37,58.05,22.81,102668,0.710,-7.160,-1.771,0.013,-0.027,0.970,40.01,360.00,261.00,-317.00,3088.0000
24072,22.37,58.09,22.82,102666,1.214,0.382,-0.702,-0.042,-0.020,1.014,39.92,347.00,258.00,-310.00,3085.0000
24151,22.38,58.12,22.82,102666,2.847,4.786,0.725,-0.038,-0.034,1.022,39.82,362.00,263.00,-310.00,3087.0000
24225,22.36,58.10,22.82,102665,1.382,-6.595,-1.397,-0.003,-0.019,1.023,40.01,362.00,263.00,-315.00,3085.0000
24299,22.36,58.13,22.82,102665,4.565,9.244,1.565,-0.107,0.010,1.040,40.06,342.00,256.00,-315.00,3088.0000
24373,22.38,58.14,22.82,102664,3.130,0.878,-0.565,-0.062,0.075,1.000,39.92,328.00,232.00,-305.00,3088.0000
24447,22.37,58.15,22.82,102664,11.290,-20.924,-11.191,-0.144,-0.063,1.116,39.82,331.00,217.00,-312.00,3087.0000
24526,22.36,58.19,22.82,102664,-21.733,-11.290,21.588,-0.244,-0.432,1.508,39.64,336.00,217.00,-323.00,3086.0000
24600,22.37,58.19,22.82,102664,7.275,-32.023,21.053,0.006,0.041,0.949,39.87,350.00,238.00,-328.00,3086.0000
24688,22.36,58.25,22.82,102661,-1.573,5.000,31.336,0.182,-0.164,0.935,39.73,355.00,251.00,-348.00,3086.0000
24762,22.37,58.24,22.82,102661,4.053,5.908,9.954,-0.061,0.033,1.117,39.49,393.00,232.00,-336.00,3087.0000
24836,22.38,58.23,22.81,102662,6.687,-54.527,-4.389,0.016,-0.076,0.948,39.73,367.00,243.00,-331.00,3087.0000
24915,22.38,58.26,22.81,102662,0.313,-9.611,-11.305,0.054,0.006,1.023,39.82,342.00,256.00,-343.00,3087.0000
24989,22.37,58.24,22.81,102665,2.786,-13.397,-8.656,0.090,-0.018,0.973,39.54,342.00,266.00,-328.00,3087.0000
25063,22.38,58.25,22.81,102665,-4.229,17.908,-8.618,0.056,-0.050,1.013,39.87,362.00,248.00,-326.00,3085.0000
25137,22.38,58.25,22.81,102667,4.405,-4.328,-8.466,0.060,-0.007,1.030,39.49,345.00,266.00,-331.00,3085.0000
25211,22.37,58.27,22.81,102667,3.137,-2.260,-0.817,0.077,-0.019,1.019,39.82,347.00,275.00,-326.00,3085.0000
25305,22.36,58.32,22.81,102663,-1.366,15.939,-1.313,0.059,-0.012,1.072,39.73,350.00,272.00,-341.00,3087.0000
25392,22.34,58.33,22.81,102663,1.939,-13.947,-2.634,0.091,-0.038,0.990,39.68,347.00,263.00,-321.00,3084.0000
25466,22.36,58.27,22.81,102668,-1.443,11.397,-8.282,-0.001,-0.028,1.031,39.64,340.00,261.00,-326.00,3086.0000
25540,22.36,58.29,22.81,102668,11.275,-19.046,-18.893,0.137,-0.100,0.785,39.73,318.00,263.00,-323.00,3087.0000
25619,22.37,58.32,22.80,102668,3.374,0.863,4.603,0.073,0.011,1.054,39.82,326.00,266.00,-315.00,3087.0000
25693,22.36,58.31,22.80,102664,2.221,1.206,4.466,0.108,-0.023,1.005,39.49,333.00,272.00,-315.00,3085.0000
25767,22.36,58.30,22.80,102664,9.641,0.534,9.992,-0.012,-0.034,1.105,39.68,328.00,292.00,-326.00,3085.0000
25841,22.36,58.29,22.79,102666,0.786,3.336,-0.038,0.147,-0.016,0.971,39.73,321.00,290.00,-326.00,3085.0000
25915,22.35,58.25,22.79,102666,4.832,7.229,1.817,0.179,-0.007,0.984,39.73,323.00,290.00,-321.00,3083.0000
25994,22.35,58.28,22.79,102669,2.916,-8.389,-0.794,-0.062,-0.084,1.111,39.40,331.00,272.00,-315.00,3084.0000
26068,22.36,58.29,22.79,102669,1.031,0.725,0.031,0.082,-0.020,1.014,39.35,336.00,272.00,-341.00,3085.0000
26142,22.36,58.31,22.79,102668,2.527,-1.817,0.893,0.097,-0.044,1.074,39.64,326.00,280.00,-323.00,3083.0000
26216,22.36,58.34,22.79,102668,3.534,-9.756,0.473,0.161,0.018,1.034,39.21,323.00,282.00,-323.00,3086.0000
26290,22.35,58.33,22.79,102666,-0.908,2.466,-1.000,0.108,-0.028,0.994,39.54,340.00,275.00,-315.00,3086.0000
26369,22.34,58.35,22.79,102666,-0.191,3.427,-0.198,0.161,0.003,0.997,39.35,326.00,280.00,-323.00,3088.0000
26443,22.34,58.34,22.79,102666,1.679,6.939,0.542,0.124,0.066,1.017,39.40,323.00,282.00,-317.00,3085.0000
26517,22.35,58.34,22.79,102666,2.733,3.000,0.565,0.119,-0.035,0.969,39.49,311.00,277.00,-315.00,3085.0000
26591,22.36,58.30,22.78,102665,0.977,2.870,0.977,0.064,-0.032,1.058,39.64,326.00,272.00,-331.00,3087.0000
26665,22.35,58.28,22.78,102665,-1.710,-1.931,19.328,0.168,-0.045,0.973,39.54,331.00,282.00,-328.00,3087.0000
26744,22.34,58.28,22.77,102665,1.076,-4.527,-0.580,-0.014,0.180,1.000,39.40,342.00,280.00,-326.00,3085.0000
26818,22.35,58.27,22.77,102665,3.076,7.198,-0.656,0.097,-0.010,0.943,39.64,328.00,280.00,-321.00,3085.0000
26892,22.35,58.25,22.76,102665,1.580,-0.656,-0.191,0.085,-0.016,0.993,39.12,333.00,282.00,-315.00,3085.0000
26966,22.35,58.25,22.76,102665,1.740,-0.473,-0.359,0.125,-0.016,0.990,39.73,337.00,282.00,-341.00,3085.0000
27045,22.34,58.24,22.76,102669,1.809,6.359,-5.931,-0.209,-0.093,1.122,39.40,328.00,282.00,-331.00,3084.0000
27119,22.33,58.22,22.76,102669,-0.015,1.153,0.053,0.097,-0.045,1.024,39.49,342.00,292.00,-323.00,3085.0000
27193,22.34,58.20,22.76,102666,1.061,-1.053,-0.466,0.005,-0.016,1.080,39.40,337.00,285.00,-312.00,3088.0000
27267,22.32,58.25,22.76,102666,1.977,0.664,-0.115,0.087,-0.021,1.009,39.49,347.00,287.00,-321.00,3087.0000
27341,22.32,58.24,22.75,102663,1.603,-0.924,-0.656,0.046,-0.012,1.034,39.49,331.00,292.00,-338.00,3086.0000
27420,22.32,58.27,22.75,102663,-6.702,27.870,-6.794,0.396,-0.034,0.765,39.35,336.00,290.00,-315.00,3087.0000
27494,22.33,58.24,22.76,102665,5.092,-6.634,6.634,0.128,0.045,1.058,39.35,328.00,287.00,-328.00,3083.0000
27568,22.33,58.23,22.76,102665,1.191,0.008,-0.221,0.112,-0.019,1.012,39.54,331.00,287.00,-315.00,3085.0000
27642,22.33,58.18,22.76,102666,1.504,1.992,-0.702,0.090,-0.017,1.015,39.31,340.00,277.00,-338.00,3083.0000
27716,22.32,58.21,22.76,102666,1.725,3.359,-0.267,0.148,-0.029,0.981,39.12,337.00,285.00,-323.00,3085.0000
27795,22.33,58.18,22.75,102664,1.481,0.389,-0.809,0.082,-0.026,1.015,39.21,316.00,310.00,-328.00,3085.0000
27871,22.32,58.18,22.75,102664,2.061,1.870,0.649,0.129,-0.021,1.000,38.98,326.00,277.00,-333.00,3086.0000
27945,22.31,58.16,22.75,102664,1.939,1.908,-0.397,0.080,-0.027,1.020,39.12,321.00,290.00,-326.00,3085.0000
28019,22.32,58.16,22.75,102664,2.389,2.252,0.198,0.132,-0.013,0.989,39.02,337.00,287.00,-326.00,3083.0000
28093,22.32,58.13,22.75,102664,2.397,4.702,0.687,0.175,-0.007,0.939,39.12,331.00,292.00,-328.00,3087.0000
28188,22.29,58.15,22.75,102664,2.718,42.130,5.916,0.028,0.150,1.346,39.12,337.00,280.00,-326.00,3086.0000
28264,22.31,58.09,22.75,102661,-2.809,0.511,-0.985,0.016,0.016,1.179,38.98,336.00,290.00,-346.00,3085.0000
28338,22.30,58.07,22.75,102661,-7.496,-2.832,1.420,0.101,0.029,1.103,39.12,342.00,295.00,-351.00,3084.0000
28412,22.30,58.09,22.75,102664,-37.389,-79.427,-15.473,0.192,-0.132,1.222,39.02,326.00,305.00,-353.00,3086.0000
28491,22.30,58.07,22.75,102665,-54.573,76.214,27.847,0.755,-0.192,1.347,38.98,355.00,302.00,-421.00,3083.0000
28565,22.31,58.00,22.75,102665,-53.267,103.710,20.069,1.906,-0.593,0.121,39.02,407.00,295.00,-463.00,3087.0000
28639,22.30,58.02,22.75,102666,-55.176,-23.863,-15.427,-0.215,-0.203,1.325,39.21,430.00,328.00,-488.00,3083.0000
28713,22.29,57.98,22.75,102666,-76.985,-49.763,17.733,-0.071,0.149,0.974,39.17,501.00,362.00,-541.00,3083.0000
28810,22.27,58.01,22.75,102664,-56.580,-114.504,37.832,0.039,-0.476,1.113,38.84,643.00,331.00,-603.00,3086.0000
28889,22.28,57.94,22.75,102664,-66.489,65.656,94.244,0.097,-0.497,0.673,38.98,732.00,266.00,-621.00,3082.0000
28963,22.28,57.91,22.74,102664,-44.015,-19.145,86.824,0.947,-0.630,-0.372,38.98,772.00,272.00,-642.00,3086.0000
29037,22.28,57.86,22.74,102664,-7.389,-24.466,56.855,0.256,-0.802,0.674,38.84,758.00,287.00,-650.00,3083.0000
29111,22.27,57.82,22.73,102663,-7.481,-25.565,47.954,-0.261,-0.696,0.707,38.98,756.00,326.00,-665.00,3083.0000
29185,22.28,57.80,22.73,102663,25.473,17.779,8.962,-0.415,-0.937,0.896,39.02,686.00,238.00,-682.00,3086.0000
29264,22.28,57.76,22.72,102661,13.664,14.954,-54.855,-0.627,-1.041,1.249,39.12,657.00,188.00,-670.00,3083.0000
29338,22.28,57.74,22.72,102661,-37.550,-22.702,1.931,0.245,-0.652,0.691,38.84,706.00,222.00,-692.00,3081.0000
29412,22.26,57.70,22.71,102663,-47.573,-27.237,-13.626,0.026,-0.543,0.802,38.88,798.00,336.00,-675.00,3083.0000
29486,22.27,57.67,22.71,102663,-30.511,28.321,-1.298,1.009,-0.881,-0.320,38.88,861.00,372.00,-682.00,3085.0000
29565,22.26,57.65,22.71,102666,-28.863,-43.496,-9.580,-0.015,-0.717,0.846,38.79,928.00,396.00,-685.00,3082.0000
29639,22.27,57.62,22.71,102666,-50.214,12.084,-38.664,0.083,-0.785,0.677,38.84,988.00,403.00,-672.00,3085.0000
29713,22.28,57.57,22.70,102661,-55.053,4.099,-29.282,0.154,-0.725,0.536,38.88,1058.00,416.00,-662.00,3086.0000
29787,22.29,57.54,22.70,102661,14.718,9.198,2.031,0.206,-0.856,0.614,38.79,1100.00,411.00,-682.00,3084.0000
29861,22.28,57.52,22.70,102663,2.519,9.038,-11.336,0.310,-0.875,0.624,38.79,1126.00,398.00,-725.00,3083.0000
29940,22.26,57.48,22.70,102663,-2.947,-11.031,-24.534,0.148,-0.824,0.607,38.60,1210.00,413.00,-755.00,3083.0000
30014,22.27,57.44,22.69,102665,20.603,41.160,-7.534,0.249,-0.641,0.286,38.79,1173.00,413.00,-820.00,3083.0000
30088,22.26,57.42,22.69,102665,74.252,47.061,27.924,0.340,-0.747,0.379,38.65,1133.00,421.00,-890.00,3084.0000
30162,22.26,57.40,22.69,102664,-42.664,-2.718,-47.244,0.772,-0.870,0.637,38.65,1160.00,440.00,-907.00,3085.0000
30236,22.26,57.36,22.69,102664,34.557,16.489,4.237,0.255,-0.729,0.489,38.65,1071.00,426.00,-937.00,3083.0000
30315,22.26,57.38,22.69,102664,-13.481,10.618,-4.893,0.294,-0.673,0.549,38.69,1080.00,406.00,-922.00,3085.0000
30389,22.25,57.32,22.69,102664,-3.779,20.015,-18.122,0.179,-0.622,0.721,38.51,1097.00,387.00,-935.00,3085.0000
30463,22.27,57.27,22.69,102665,-19.824,32.725,-27.176,0.285,-0.702,0.670,38.51,1207.00,393.00,-887.00,3085.0000
30537,22.25,57.27,22.69,102665,-141.061,-41.634,-58.870,0.145,-0.827,1.005,38.79,1431.00,483.00,-765.00,3083.0000
30616,22.24,57.27,22.69,102663,-36.870,55.878,-55.214,0.332,-0.963,0.585,38.65,1543.00,488.00,-722.00,3071.0000
30690,22.25,57.22,22.69,102663,41.137,91.389,0.183,0.207,-0.613,0.670,38.69,1491.00,493.00,-802.00,3084.0000
30764,22.24,57.26,22.70,102663,-12.939,13.733,-32.344,0.138,-0.503,0.860,38.51,1507.00,507.00,-810.00,3085.0000
30838,22.25,57.23,22.70,102663,-99.740,122.321,-94.962,0.525,-1.017,0.542,38.69,1623.00,377.00,-685.00,3086.0000
30912,22.25,57.21,22.70,102664,-46.802,45.206,-87.214,0.010,-0.908,0.554,38.65,1686.00,476.00,-631.00,3081.0000
31006,22.23,57.23,22.70,102663,-17.878,180.099,14.237,0.061,-1.185,0.760,38.65,1678.00,311.00,-608.00,3083.0000
31082,22.23,57.17,22.70,102663,56.374,3.015,-1.366,0.252,-0.884,0.591,38.65,1623.00,292.00,-655.00,3085.0000
31156,22.23,57.17,22.70,102664,0.321,44.733,-47.145,-0.053,-0.725,0.423,38.65,1608.00,248.00,-645.00,3086.0000
31230,22.25,57.15,22.70,102664,-39.924,31.893,9.840,0.008,-0.777,0.729,38.79,1618.00,173.00,-613.00,3083.0000
31309,22.23,57.13,22.69,102666,-4.458,48.443,-23.679,0.056,-0.879,0.238,38.79,1587.00,91.00,-606.00,3085.0000
31383,22.23,57.11,22.69,102666,-139.473,150.580,32.466,0.452,-0.728,-0.056,38.60,1666.00,-1.00,-431.00,3084.0000
31457,22.25,57.12,22.69,102667,3.992,47.336,-20.626,-0.088,-0.714,0.377,38.65,1652.00,-8.00,-448.00,3084.0000
31531,22.24,57.09,22.69,102667,1.611,-55.794,-10.328,0.106,-0.955,0.400,38.46,1650.00,23.00,-483.00,3082.0000
31605,22.24,57.09,22.69,102667,26.611,-49.458,-38.176,-0.011,-0.934,0.575,38.69,1663.00,111.00,-566.00,3081.0000
31684,22.23,57.10,22.69,102667,15.427,-14.198,-41.351,0.105,-0.804,0.234,38.69,1688.00,173.00,-581.00,3079.0000
31758,22.22,57.06,22.69,102662,-49.855,-40.305,-12.939,-0.156,-0.862,0.817,38.65,1775.00,161.00,-523.00,3083.0000
31832,22.23,57.05,22.69,102662,-43.641,-42.443,-27.359,-0.002,-0.957,0.670,38.37,1892.00,230.00,-518.00,3084.0000
31906,22.23,57.05,22.68,102665,-1.809,-54.344,-29.405,0.338,-0.649,0.049,38.51,2007.00,285.00,-568.00,3083.0000
31980,22.22,57.04,22.68,102665,-115.679,-73.275,-25.221,0.146,-0.999,0.026,38.51,2272.00,323.00,-491.00,3085.0000
32061,22.23,57.00,22.68,102667,-45.611,-0.672,54.275,0.277,-0.943,0.041,38.65,2390.00,183.00,-373.00,3085.0000
32135,22.22,57.01,22.68,102667,-30.008,-34.641,-25.099,0.310,-1.113,0.299,38.51,2577.00,193.00,-300.00,3083.0000
32209,22.24,56.96,22.68,102666,-30.863,-28.687,-3.740,0.164,-0.934,0.197,38.65,2825.00,181.00,-240.00,3083.0000
32283,22.23,56.94,22.68,102666,-4.252,15.328,18.756,0.227,-1.001,-0.032,38.51,3028.00,171.00,-237.00,3085.0000
32362,22.23,56.99,22.68,102664,37.885,69.992,-35.733,0.297,-1.054,-0.151,38.69,3136.00,476.00,-503.00,3083.0000
32436,22.24,56.96,22.68,102664,28.351,115.061,-27.870,0.228,-0.828,0.003,38.60,2796.00,551.00,-700.00,3086.0000
32510,22.23,56.94,22.68,102663,72.824,155.160,-22.908,0.165,-0.994,0.143,38.84,2298.00,481.00,-872.00,3085.0000
32584,22.23,56.96,22.68,102663,-3.511,141.496,13.099,0.226,-0.707,0.198,38.65,2135.00,290.00,-675.00,3085.0000
32658,22.24,56.97,22.68,102667,-40.855,70.885,-25.153,0.169,-1.155,0.431,38.79,2041.00,232.00,-548.00,3084.0000
32737,22.23,56.98,22.68,102667,-0.702,63.290,3.229,0.235,-1.034,0.371,38.60,2002.00,195.00,-508.00,3081.0000
32811,22.22,56.98,22.67,102661,-66.191,5.740,-5.718,0.081,-0.879,0.499,38.60,2093.00,195.00,-391.00,3083.0000
32900,22.22,57.03,22.67,102661,-14.847,3.855,6.351,0.126,-0.951,0.263,38.65,2096.00,163.00,-312.00,3083.0000
32983,22.22,56.99,22.68,102665,-33.771,-5.847,-33.565,0.091,-1.008,0.256,38.46,2150.00,212.00,-172.00,3083.0000
33062,22.22,56.99,22.68,102662,-83.969,4.351,-4.771,0.292,-1.035,0.215,38.79,2202.00,227.00,-72.00,3083.0000
33136,22.22,56.99,22.68,102662,27.435,-2.481,6.198,0.133,-0.931,0.057,38.60,2210.00,200.00,-82.00,3083.0000
33210,22.22,56.99,22.68,102665,0.840,-15.221,10.206,0.128,-0.972,-0.157,38.51,2218.00,197.00,-25.00,3083.0000
33284,22.22,57.00,22.68,102665,-31.863,-0.252,18.420,0.060,-1.054,0.081,38.46,2210.00,156.00,35.00,3084.0000
33358,22.22,57.00,22.68,102665,-15.733,-9.069,16.443,0.148,-0.938,0.017,38.37,2197.00,127.00,115.00,3083.0000
33437,22.22,57.03,22.68,102665,15.160,12.595,-6.015,-0.008,-1.004,-0.138,38.46,2212.00,122.00,102.00,3084.0000
33511,22.23,57.01,22.67,102665,12.176,-5.359,20.733,0.137,-0.976,-0.004,38.46,2178.00,81.00,70.00,3083.0000
33585,22.24,57.01,22.67,102665,71.481,20.809,22.756,0.195,-1.028,-0.286,38.37,2093.00,23.00,-70.00,3085.0000
33659,22.22,57.01,22.68,102665,45.198,30.710,14.015,0.166,-1.019,0.078,38.46,2007.00,13.00,-137.00,3085.0000
33733,22.23,57.01,22.68,102665,64.206,7.450,31.153,0.015,-0.998,0.184,38.51,1906.00,-47.00,-235.00,3082.0000
33827,22.20,57.09,22.68,102663,13.237,2.710,7.427,-0.041,-0.921,0.329,38.46,1900.00,-72.00,-252.00,3083.0000
33914,22.19,57.07,22.68,102663,30.382,-0.626,-2.160,-0.021,-0.978,0.236,38.37,1877.00,-36.00,-277.00,3083.0000
33988,22.20,57.02,22.67,102663,-41.336,-1.718,6.351,0.090,-1.015,0.156,38.37,1945.00,-18.00,-155.00,3083.0000
34062,22.22,56.98,22.67,102663,-23.924,55.092,-8.962,-0.162,-1.077,0.209,38.51,1968.00,8.00,-72.00,3083.0000
34141,22.21,57.02,22.67,102665,-79.221,8.969,-49.069,-0.075,-0.945,0.185,38.51,2093.00,142.00,10.00,3084.0000
34215,22.20,57.00,22.67,102665,-69.328,30.969,-21.916,0.157,-0.802,0.030,38.60,2135.00,163.00,120.00,3083.0000
34289,22.20,57.00,22.66,102664,33.893,68.374,-10.061,-0.740,-1.041,0.626,38.32,2147.00,173.00,80.00,3084.0000
34363,22.19,57.00,22.66,102664,24.198,-30.122,13.649,0.252,-0.948,-0.125,38.37,2137.00,202.00,-45.00,3085.0000
34437,22.20,57.01,22.66,102661,48.817,53.313,0.015,0.133,-0.867,-0.116,38.51,2043.00,188.00,-122.00,3084.0000
34516,22.20,57.02,22.66,102661,3.550,2.756,65.237,-0.146,-0.845,0.349,38.37,2028.00,91.00,-90.00,3084.0000
34590,22.20,56.99,22.66,102665,-3.145,20.412,56.336,-0.093,-1.103,-0.091,38.46,2022.00,38.00,-87.00,3084.0000
34664,22.20,57.01,22.66,102665,37.313,40.931,17.443,0.322,-1.036,-0.284,38.37,1955.00,1.00,-190.00,3082.0000
34738,22.20,56.98,22.65,102662,60.947,13.099,25.939,-0.083,-0.898,0.116,38.65,1813.00,-23.00,-275.00,3085.0000
34812,22.22,57.03,22.65,102662,43.611,4.992,11.649,-0.176,-0.771,0.293,38.46,1755.00,-38.00,-315.00,3082.0000
34891,22.19,57.01,22.65,102663,33.000,1.031,-5.511,-0.235,-1.079,0.300,38.37,1705.00,-52.00,-297.00,3083.0000
34965,22.19,57.00,22.65,102663,40.885,58.824,6.443,-0.285,-0.903,0.256,38.51,1673.00,-75.00,-292.00,3083.0000
35039,22.18,56.99,22.65,102663,-21.916,-6.382,16.817,-0.191,-0.964,0.187,38.37,1700.00,-116.00,-252.00,3083.0000
35113,22.19,57.01,22.65,102663,57.290,36.985,46.061,-0.243,-1.035,0.312,38.37,1626.00,-163.00,-255.00,3084.0000
35192,22.19,57.01,22.64,102666,48.649,7.656,16.099,-0.388,-0.884,0.350,38.32,1543.00,-181.00,-285.00,3083.0000
35266,22.19,56.99,22.64,102666,46.855,13.885,37.191,-0.416,-0.845,0.468,38.51,1465.00,-225.00,-310.00,3086.0000
35340,22.17,57.00,22.64,102665,55.931,-11.000,15.939,-0.302,-0.749,0.438,38.32,1368.00,-217.00,-338.00,3083.0000
35414,22.19,56.98,22.64,102665,61.275,-30.878,38.397,-0.374,-0.719,0.544,38.37,1311.00,-236.00,-436.00,3083.0000
35488,22.18,56.99,22.63,102665,39.641,-18.145,5.435,-0.350,-0.712,0.424,38.46,1293.00,-191.00,-473.00,3083.0000
35567,22.17,57.01,22.63,102665,35.214,-30.588,-13.313,-0.353,-0.698,0.700,38.37,1256.00,-135.00,-521.00,3086.0000
35641,22.18,56.99,22.62,102664,38.855,3.679,21.588,-0.433,-0.585,0.964,38.32,1215.00,-137.00,-551.00,3082.0000
35715,22.16,57.00,22.62,102664,50.099,-17.191,-8.679,-0.205,-0.656,0.475,38.37,1137.00,-86.00,-596.00,3083.0000
35789,22.17,57.01,22.62,102666,30.626,42.099,0.702,0.502,-0.606,-0.809,38.51,1056.00,-33.00,-645.00,3085.0000
35868,22.16,57.05,22.62,102665,35.542,-25.504,-13.260,-0.244,-0.471,0.993,38.08,1017.00,31.00,-707.00,3083.0000
35942,22.18,57.03,22.62,102665,17.511,17.740,49.756,-0.157,-0.291,0.751,38.37,988.00,-98.00,-742.00,3082.0000
36016,22.17,57.03,22.61,102667,13.504,57.046,74.382,-0.395,-0.413,0.969,38.46,948.00,-233.00,-827.00,3083.0000
36090,22.17,57.09,22.61,102667,88.504,-28.771,41.534,-0.567,-0.459,0.987,38.60,798.00,-266.00,-971.00,3086.0000
36164,22.17,57.07,22.60,102665,142.626,-42.702,13.878,-0.253,-0.340,0.830,38.46,701.00,-300.00,-1041.00,3071.0000
36243,22.16,57.11,22.60,102665,-35.366,0.611,23.779,-0.469,-0.306,0.611,38.60,813.00,-367.00,-1016.00,3083.0000
36317,22.15,57.13,22.61,102666,-11.443,19.504,5.015,-0.491,-0.312,1.112,38.18,826.00,-333.00,-1006.00,3084.0000
36393,22.15,57.12,22.61,102666,52.115,-54.611,-11.641,-0.484,-0.096,1.311,38.65,780.00,-246.00,-1078.00,3082.0000
36467,22.16,57.13,22.61,102665,22.397,-7.847,-32.985,-0.085,-0.269,0.797,38.37,821.00,-217.00,-1113.00,3084.0000
36541,22.15,57.15,22.61,102665,33.634,-29.733,-18.550,-0.543,-0.278,1.391,38.46,830.00,-186.00,-1133.00,3086.0000
36635,22.14,57.21,22.61,102664,35.748,-46.573,-11.725,-0.448,-0.061,1.067,38.65,823.00,-183.00,-1133.00,3085.0000
36722,22.12,57.23,22.61,102664,45.504,-49.046,13.412,-0.107,-0.052,1.114,38.37,787.00,-176.00,-1138.00,3082.0000
36796,22.14,57.22,22.61,102665,18.099,-49.489,-7.725,-0.631,0.083,1.564,38.13,801.00,-62.00,-1121.00,3071.0000
36870,22.14,57.25,22.61,102665,11.924,-100.916,-35.588,-0.072,0.057,0.682,38.32,860.00,83.00,-1156.00,3083.0000
36969,22.12,57.31,22.61,102665,29.969,-37.137,-20.573,0.031,-0.117,1.101,38.37,837.00,200.00,-1193.00,3082.0000
37043,22.14,57.28,22.61,102665,14.672,-82.313,1.176,0.050,0.028,0.997,38.46,852.00,307.00,-1213.00,3085.0000
37117,22.15,57.32,22.62,102666,0.481,-10.260,30.626,0.144,0.087,1.050,38.27,878.00,232.00,-1231.00,3085.0000
37191,22.15,57.34,22.62,102662,3.183,101.282,43.046,0.124,-0.259,0.755,38.32,888.00,93.00,-1198.00,3085.0000
37265,22.17,57.35,22.62,102662,-4.450,29.099,7.565,0.086,0.089,1.035,38.65,897.00,81.00,-1131.00,3084.0000
37344,22.16,57.39,22.62,102664,33.519,-204.473,-6.702,-0.063,-0.323,1.086,38.32,871.00,382.00,-1146.00,3083.0000
37418,22.16,57.42,22.62,102664,41.924,-17.443,49.115,0.464,0.413,0.630,38.51,830.00,370.00,-1131.00,3083.0000
37492,22.16,57.42,22.62,102665,-22.366,15.618,33.542,0.450,0.064,0.961,38.32,878.00,348.00,-1148.00,3083.0000
37566,22.16,57.41,22.62,102665,-72.221,-27.550,45.519,-0.075,0.042,1.128,38.27,1035.00,331.00,-1153.00,3084.0000
37645,22.15,57.42,22.62,102665,8.176,27.412,0.023,0.218,-0.134,0.764,38.32,1001.00,343.00,-1161.00,3085.0000
37719,22.16,57.48,22.62,102665,76.443,74.191,-64.351,0.091,-0.176,1.508,38.37,923.00,285.00,-1183.00,3081.0000
37793,22.16,57.46,22.62,102666,-6.840,17.710,-25.679,0.605,0.185,0.400,38.37,948.00,271.00,-1211.00,3084.0000
37867,22.16,57.48,22.62,102666,7.863,16.687,-3.802,0.191,0.127,0.867,38.37,946.00,275.00,-1188.00,3083.0000
37941,22.16,57.50,22.61,102664,3.817,2.435,-6.130,0.284,-0.010,0.898,38.37,951.00,243.00,-1176.00,3085.0000
38020,22.17,57.50,22.61,102664,15.748,-4.626,-5.076,0.153,0.032,1.018,38.46,946.00,251.00,-1168.00,3085.0000
38094,22.16,57.50,22.61,102668,9.344,10.252,-34.832,0.329,0.037,0.969,38.37,962.00,271.00,-1141.00,3083.0000
38168,22.17,57.52,22.61,102668,13.969,10.595,-33.160,-0.007,0.139,1.362,38.46,972.00,253.00,-1136.00,3082.0000
38242,22.16,57.52,22.60,102662,8.901,8.282,22.565,0.328,-0.116,0.895,38.32,941.00,238.00,-1088.00,3083.0000
38316,22.17,57.53,22.60,102662,45.611,1.916,-18.595,0.245,0.239,0.983,38.65,878.00,222.00,-1033.00,3083.0000
38395,22.14,57.58,22.60,102669,-20.802,1.145,8.855,-0.005,0.162,0.993,38.37,897.00,225.00,-988.00,3085.0000
38469,22.17,57.51,22.60,102669,-34.718,6.168,18.366,0.240,0.168,1.049,38.37,957.00,191.00,-952.00,3083.0000
38543,22.16,57.53,22.59,102668,-11.931,30.847,8.519,0.259,0.075,0.989,38.13,941.00,150.00,-937.00,3086.0000
38617,22.15,57.54,22.59,102668,49.481,17.473,-24.611,-0.050,0.234,1.055,38.46,926.00,158.00,-940.00,3085.0000
38696,22.13,57.57,22.59,102663,1.931,19.656,-23.282,-0.018,0.234,1.054,38.37,955.00,145.00,-922.00,3083.0000
38770,22.15,57.56,22.59,102663,6.290,5.061,0.580,0.081,0.198,1.094,38.51,970.00,137.00,-935.00,3082.0000
38844,22.16,57.56,22.59,102667,-16.740,35.092,-17.863,0.038,0.099,1.125,38.32,1013.00,111.00,-937.00,3082.0000
38918,22.15,57.59,22.59,102667,30.092,13.145,-36.695,-0.099,0.054,1.062,38.32,1003.00,113.00,-981.00,3083.0000
38992,22.15,57.58,22.58,102666,47.160,8.710,-23.168,0.013,0.210,0.958,38.37,982.00,111.00,-988.00,3081.0000
39071,22.13,57.65,22.58,102666,-26.336,62.588,45.160,0.013,0.319,1.019,38.46,1017.00,-11.00,-976.00,3085.0000
39145,22.14,57.61,22.58,102666,-0.977,77.389,32.832,-0.199,0.184,0.985,38.27,1035.00,-103.00,-952.00,3083.0000
39219,22.14,57.61,22.58,102666,8.198,9.725,27.481,-0.157,-0.016,1.125,38.46,1015.00,-142.00,-925.00,3085.0000
39293,22.15,57.59,22.58,102665,-9.695,8.107,-8.298,-0.242,0.127,0.948,38.60,1015.00,-140.00,-915.00,3086.0000
39367,22.15,57.61,22.58,102665,13.695,15.298,4.160,-0.163,0.235,0.955,38.37,1011.00,-155.00,-887.00,3084.0000
39461,22.13,57.67,22.58,102667,4.992,-0.115,-10.496,-0.125,0.083,0.967,38.37,1017.00,-161.00,-910.00,3082.0000
39537,22.13,57.62,22.58,102667,4.702,-4.206,1.076,-0.027,0.287,0.916,38.37,1025.00,-155.00,-857.00,3083.0000
39611,22.14,57.59,22.57,102669,-0.191,-38.885,2.924,0.708,0.128,0.088,38.37,986.00,-130.00,-867.00,3085.0000
39685,22.13,57.59,22.57,102669,10.947,3.450,-8.786,0.057,0.144,0.634,38.37,975.00,-111.00,-857.00,3083.0000
39759,22.13,57.61,22.57,102665,-6.305,-4.237,3.053,-0.034,0.180,0.799,38.37,980.00,-62.00,-840.00,3083.0000
39838,22.12,57.60,22.57,102665,-17.489,-16.863,-30.710,0.130,0.358,0.806,38.46,1027.00,-13.00,-807.00,3082.0000
39912,22.13,57.56,22.56,102665,-7.649,-10.260,-11.473,-0.121,0.252,1.067,38.37,1095.00,8.00,-830.00,3083.0000
39986,22.14,57.54,22.56,102665,-16.489,-15.939,-17.588,-0.096,0.064,0.980,38.37,1165.00,65.00,-800.00,3085.0000
40060,22.11,57.48,22.56,102667,-7.969,-15.214,-4.008,-0.221,0.168,1.071,38.46,1191.00,72.00,-780.00,3085.0000
40139,22.10,57.45,22.56,102667,-13.420,10.176,3.588,-0.137,0.079,0.989,38.51,1225.00,45.00,-767.00,3083.0000
40213,22.11,57.37,22.55,102664,-24.931,17.496,1.702,-0.126,0.125,0.902,38.37,1265.00,40.00,-762.00,3083.0000
40287,22.09,57.27,22.55,102664,-12.519,0.550,1.519,-0.113,0.084,1.053,38.32,1290.00,50.00,-757.00,3084.0000
40361,22.08,57.18,22.54,102663,5.786,1.565,10.092,-0.047,-0.135,1.052,37.99,1277.00,67.00,-737.00,3083.0000
40435,22.07,57.13,22.54,102663,9.763,-18.977,-9.916,0.008,-0.058,1.151,38.27,1260.00,101.00,-735.00,3085.0000
40514,22.06,57.07,22.52,102667,8.137,-11.366,0.397,-0.168,-0.025,1.000,38.37,1241.00,98.00,-747.00,3083.0000
40590,22.06,56.97,22.49,102666,40.763,-10.069,-1.160,0.281,0.531,2.000,38.27,1176.00,117.00,-765.00,3085.0000
40664,22.03,56.87,22.49,102666,-30.924,-33.450,34.771,0.165,0.021,0.564,38.46,1167.00,113.00,-745.00,3081.0000
40738,22.04,56.75,22.46,102660,3.298,1.817,14.031,0.076,0.189,0.988,38.37,1157.00,93.00,-755.00,3085.0000
40812,22.01,56.68,22.46,102660,-5.344,-3.855,2.550,-0.092,0.092,1.066,38.32,1165.00,101.00,-742.00,3087.0000
40891,22.00,56.60,22.44,102664,-0.992,0.153,0.008,0.106,-0.091,0.978,38.37,1181.00,93.00,-745.00,3084.0000
40965,21.99,56.50,22.44,102664,2.359,2.595,-0.427,-0.004,0.046,1.017,38.32,1173.00,106.00,-732.00,3083.0000
41044,21.97,56.39,22.41,102667,3.695,2.771,-1.443,0.045,-0.022,1.017,38.27,1157.00,101.00,-750.00,3084.0000
41127,21.94,56.30,22.41,102667,6.122,11.099,-2.672,0.040,-0.056,0.960,38.46,1165.00,83.00,-755.00,3084.0000
41206,21.94,56.16,22.40,102666,2.908,-7.634,-20.466,-0.008,-0.064,0.947,38.37,1200.00,70.00,-770.00,3084.0000
41280,21.94,56.06,22.40,102666,10.634,0.695,-22.153,-0.199,-0.110,1.294,38.51,1236.00,40.00,-752.00,3083.0000
41354,21.94,55.95,22.39,102666,-0.580,9.328,0.534,0.169,-0.064,0.834,38.32,1225.00,45.00,-762.00,3084.0000
41428,21.92,55.87,22.39,102666,2.794,2.221,0.321,-0.009,0.008,0.979,38.32,1230.00,47.00,-765.00,3087.0000
41502,21.91,55.78,22.38,102664,2.153,-0.107,-0.252,-0.017,0.054,0.971,38.27,1230.00,57.00,-745.00,3084.0000
41581,21.90,55.70,22.38,102664,-5.214,26.267,0.832,0.236,0.101,0.783,38.27,1222.00,65.00,-755.00,3086.0000
41655,21.89,55.58,22.38,102665,3.542,-12.466,8.924,-0.184,-0.057,0.904,37.99,1207.00,67.00,-757.00,3088.0000
41729,21.88,55.48,22.38,102665,1.527,-9.137,5.855,-0.226,0.005,1.073,38.32,1181.00,60.00,-760.00,3083.0000
41803,21.87,55.34,22.36,102665,1.496,2.626,-0.176,0.084,0.096,1.064,38.51,1188.00,65.00,-767.00,3087.0000
41877,21.87,55.23,22.36,102665,3.023,16.328,-2.695,0.590,-0.098,0.832,38.08,1196.00,62.00,-747.00,3083.0000
41956,21.85,55.11,22.35,102662,2.099,-3.802,0.008,-0.103,0.041,1.081,38.27,1193.00,55.00,-750.00,3086.0000
42030,21.85,54.97,22.35,102662,1.084,3.214,-0.565,-0.038,0.066,0.997,38.27,1198.00,57.00,-765.00,3085.0000
42104,21.84,54.84,22.33,102660,0.885,2.809,-0.595,-0.055,0.065,1.034,38.18,1198.00,55.00,-762.00,3082.0000
42178,21.82,54.71,22.33,102660,-0.229,3.374,-1.160,-0.016,0.054,0.984,38.46,1217.00,57.00,-765.00,3083.0000
42252,21.81,54.55,22.30,102661,1.962,1.573,-0.275,-0.037,0.035,1.000,38.37,1200.00,60.00,-762.00,3087.0000
42346,21.76,54.43,22.30,102661,2.344,0.733,0.076,-0.060,0.039,1.010,38.46,1200.00,40.00,-757.00,3087.0000
42422,21.77,54.27,22.28,102659,1.412,1.527,-0.252,-0.045,0.047,1.014,38.37,1196.00,55.00,-755.00,3085.0000
42496,21.77,54.14,22.28,102659,2.198,1.641,-0.084,-0.034,0.042,1.008,38.08,1198.00,62.00,-765.00,3085.0000
42570,21.76,53.98,22.27,102660,1.328,2.053,-0.198,-0.031,0.045,0.997,38.18,1212.00,65.00,-752.00,3085.0000
42649,21.74,53.86,22.26,102660,1.947,1.641,-0.084,-0.036,0.045,1.001,38.13,1202.00,60.00,-765.00,3086.0000
42723,21.74,53.75,22.26,102660,2.214,1.359,-0.382,-0.035,0.037,1.004,38.18,1188.00,45.00,-762.00,3083.0000
42797,21.72,53.60,22.26,102664,1.580,1.580,-0.229,-0.034,0.048,1.005,38.13,1188.00,52.00,-745.00,3085.0000
42871,21.72,53.47,22.26,102664,-2.489,7.359,-0.733,0.075,0.025,1.021,38.32,1188.00,50.00,-762.00,3084.0000
42945,21.71,53.33,22.25,102664,2.397,-0.672,0.313,0.029,0.079,1.014,38.37,1198.00,57.00,-750.00,3086.0000
43024,21.70,53.22,22.25,102664,2.420,0.901,0.015,-0.034,0.039,1.011,38.37,1205.00,67.00,-765.00,3084.0000
43098,21.70,53.05,22.25,102658,1.420,1.412,0.015,-0.038,0.051,1.001,38.13,1200.00,65.00,-742.00,3083.0000
43172,21.69,52.92,22.25,102658,1.771,1.962,-0.053,-0.034,0.053,1.009,38.32,1202.00,52.00,-767.00,3085.0000
43246,21.67,52.81,22.24,102659,1.260,1.466,-0.191,-0.027,0.047,1.001,38.32,1196.00,57.00,-752.00,3084.0000
43320,21.68,52.67,22.24,102659,1.580,1.092,6.962,0.026,0.077,0.960,38.32,1212.00,55.00,-745.00,3084.0000
43399,21.64,52.52,22.24,102663,-3.321,1.282,19.038,0.008,0.087,0.991,38.32,1215.00,45.00,-727.00,3084.0000
43473,21.64,52.38,22.24,102663,-3.634,-0.053,25.649,-0.046,0.063,1.031,38.18,1258.00,40.00,-712.00,3086.0000
43547,21.64,52.26,22.22,102661,9.366,-2.519,5.473,0.156,-0.147,0.982,38.46,1296.00,55.00,-695.00,3086.0000
43621,21.65,52.12,22.22,102661,-6.771,0.687,1.000,-0.137,0.102,1.045,38.32,1347.00,60.00,-645.00,3086.0000
43695,21.65,51.94,22.19,102660,0.832,4.069,-1.550,-0.015,0.121,0.991,38.32,1397.00,83.00,-588.00,3086.0000
43774,21.62,51.78,22.19,102660,-2.481,3.244,-2.649,0.007,0.062,1.014,37.99,1447.00,145.00,-403.00,3085.0000
43848,21.61,51.61,22.16,102656,-13.763,3.496,-7.405,-0.043,0.072,1.030,38.08,1441.00,227.00,-145.00,3084.0000
43922,21.58,51.46,22.16,102656,-36.481,8.176,-12.061,0.171,-0.033,0.997,38.27,1290.00,352.00,180.00,3086.0000
43996,21.57,51.30,22.11,102657,12.863,22.405,5.885,0.308,-0.240,0.644,38.32,943.00,483.00,396.00,3083.0000
44075,21.55,51.15,22.11,102657,33.244,-51.275,-32.855,-0.465,-0.586,1.082,38.32,518.00,638.00,491.00,3083.0000
44149,21.54,51.00,22.08,102656,3.305,-27.145,7.137,-0.729,-0.121,1.247,38.32,230.00,737.00,476.00,3085.0000
44223,21.53,50.89,22.08,102656,2.053,-5.313,-0.351,-0.136,-0.199,1.137,38.37,-40.00,842.00,426.00,3087.0000
44297,21.50,50.81,22.05,102656,3.122,-0.092,-1.679,-0.097,-0.111,1.037,38.46,-237.00,920.00,358.00,3087.0000
44371,21.49,50.70,22.05,102656,3.031,0.168,-0.649,-0.033,-0.100,1.008,37.94,-376.00,982.00,277.00,3084.0000
44450,21.47,50.64,22.03,102653,2.244,0.649,-0.206,-0.026,-0.132,1.010,38.08,-490.00,1050.00,195.00,3083.0000
44524,21.45,50.51,22.03,102653,2.863,0.084,-0.672,0.001,-0.082,0.957,38.13,-540.00,1075.00,157.00,3085.0000
44598,21.46,50.42,22.01,102656,2.153,6.634,-0.092,0.062,-0.124,0.941,37.85,-542.00,1062.00,137.00,3086.0000
44672,21.44,50.35,22.01,102656,1.847,4.214,-1.191,-0.103,-0.117,1.074,37.99,-537.00,1080.00,150.00,3085.0000
44746,21.43,50.21,21.99,102659,1.176,0.084,-0.542,-0.000,-0.069,0.976,37.94,-540.00,1072.00,140.00,3085.0000
44827,21.42,50.16,21.99,102659,1.687,1.542,-0.656,-0.028,-0.071,1.002,37.85,-545.00,1070.00,145.00,3083.0000
44901,21.41,50.05,21.97,102655,1.542,1.382,0.061,-0.035,-0.063,1.005,38.18,-542.00,1052.00,157.00,3085.0000
44975,21.38,49.98,21.97,102655,1.786,1.656,-0.420,-0.031,-0.071,1.003,37.99,-537.00,1067.00,152.00,3083.0000
45049,21.37,49.89,21.95,102655,1.824,1.695,-0.282,-0.032,-0.067,1.000,37.99,-537.00,1082.00,150.00,3084.0000
45123,21.37,49.82,21.95,102655,1.733,1.649,0.053,-0.027,-0.070,1.001,37.80,-553.00,1080.00,147.00,3081.0000
45242,21.30,49.76,21.92,102654,1.603,1.855,-0.099,-0.035,-0.068,0.991,38.08,-532.00,1067.00,147.00,3085.0000
45329,21.30,49.66,21.91,102657,1.481,2.061,-0.130,-0.021,-0.058,0.994,37.80,-558.00,1075.00,150.00,3084.0000
45403,21.29,49.50,21.91,102657,1.718,1.191,-0.366,-0.039,-0.072,0.997,37.66,-540.00,1067.00,145.00,3083.0000
45477,21.27,49.41,21.88,102657,1.962,2.008,-0.328,-0.033,-0.069,1.001,37.94,-542.00,1080.00,132.00,3086.0000
45556,21.27,49.32,21.88,102657,1.374,1.695,-0.122,-0.035,-0.074,0.996,37.85,-552.00,1080.00,145.00,3083.0000
45630,21.26,49.23,21.86,102660,1.847,1.901,-0.122,-0.032,-0.070,0.997,37.85,-552.00,1082.00,140.00,3083.0000
45704,21.23,49.15,21.86,102660,1.748,1.328,-0.481,-0.040,-0.073,1.010,37.80,-561.00,1086.00,132.00,3083.0000
45778,21.22,49.03,21.83,102660,1.382,2.092,-0.305,-0.024,-0.066,0.976,37.80,-590.00,1091.00,172.00,3086.0000
45852,21.22,48.93,21.83,102660,1.908,1.412,-0.282,-0.033,-0.066,1.016,37.75,-581.00,1101.00,150.00,3086.0000
45931,21.17,48.82,21.80,102656,1.702,1.458,0.038,-0.024,-0.061,0.986,37.75,-600.00,1093.00,155.00,3083.0000
46005,21.15,48.73,21.80,102656,1.725,1.763,-0.328,-0.043,-0.070,0.994,37.75,-605.00,1101.00,155.00,3085.0000
46079,21.12,48.61,21.77,102655,1.641,1.733,-0.389,-0.031,-0.066,1.004,37.94,-633.00,1103.00,172.00,3083.0000
46153,21.11,48.52,21.77,102655,1.733,1.710,-0.527,-0.039,-0.071,1.010,37.75,-662.00,1125.00,165.00,3083.0000
46227,21.09,48.42,21.73,102655,1.656,0.298,0.046,-0.027,-0.062,1.013,37.66,-681.00,1130.00,165.00,3085.0000
46306,21.05,48.32,21.73,102655,1.718,1.695,-0.305,-0.027,-0.067,0.981,37.57,-735.00,1132.00,152.00,3083.0000
46380,21.03,48.23,21.69,102661,1.695,1.641,-0.382,-0.032,-0.076,0.999,37.85,-813.00,1157.00,140.00,3082.0000
46454,21.01,48.14,21.69,102661,1.824,0.931,-0.359,-0.031,-0.057,1.009,37.75,-922.00,1181.00,130.00,3084.0000
46528,21.00,48.08,21.65,102663,1.878,10.481,-0.618,0.091,-0.095,0.833,37.66,-920.00,1178.00,110.00,3082.0000
46607,20.97,47.99,21.65,102663,2.000,2.275,-1.000,-0.124,-0.075,1.044,37.66,-952.00,1193.00,112.00,3083.0000
46681,20.97,47.91,21.63,102672,3.550,2.191,-0.473,0.008,-0.093,0.939,37.61,-946.00,1201.00,110.00,3083.0000
46755,20.95,47.82,21.63,102672,2.405,1.634,-0.420,-0.029,-0.099,1.003,37.57,-948.00,1193.00,102.00,3085.0000
46829,20.93,47.74,21.62,102623,1.389,1.405,-0.366,-0.034,-0.068,0.982,37.42,-951.00,1196.00,100.00,3083.0000
46903,20.92,47.68,21.62,102623,1.779,1.626,-0.298,-0.032,-0.055,0.995,37.66,-946.00,1196.00,110.00,3085.0000
46982,20.90,47.60,21.62,102601,1.649,1.466,-0.168,-0.037,-0.065,1.001,37.42,-957.00,1188.00,107.00,3084.0000
47056,20.89,47.51,21.62,102601,1.511,1.626,-0.061,-0.032,-0.063,0.997,37.42,-955.00,1193.00,107.00,3083.0000
47130,20.89,47.44,21.61,102592,1.855,1.786,-0.290,-0.033,-0.065,1.005,37.61,-965.00,1191.00,112.00,3082.0000
47204,20.85,47.34,21.61,102592,2.000,1.771,-0.298,-0.030,-0.071,0.997,37.33,-933.00,1193.00,90.00,3085.0000
47278,20.86,47.25,21.58,102589,1.756,1.496,-0.351,-0.029,-0.070,1.000,37.33,-951.00,1186.00,112.00,3083.0000
47357,20.84,47.18,21.58,102589,1.664,2.107,-0.160,-0.027,-0.069,0.999,37.33,-943.00,1188.00,105.00,3084.0000
47431,20.83,47.04,21.56,102590,1.763,1.351,-0.504,-0.030,-0.073,0.995,37.33,-948.00,1198.00,92.00,3085.0000
47505,20.80,46.96,21.56,102590,1.656,1.588,-0.298,-0.029,-0.068,0.993,37.33,-952.00,1181.00,105.00,3085.0000
47579,20.79,46.84,21.53,102590,1.573,1.710,-0.260,-0.030,-0.065,1.002,37.47,-952.00,1191.00,110.00,3083.0000
47653,20.79,46.75,21.53,102590,1.580,1.794,-0.153,-0.031,-0.069,0.999,37.33,-948.00,1212.00,100.00,3085.0000
47732,20.75,46.67,21.51,102592,1.634,1.710,-0.176,-0.029,-0.067,1.001,37.42,-946.00,1186.00,97.00,3085.0000
47806,20.73,46.57,21.51,102592,1.740,1.733,-0.038,-0.035,-0.070,1.000,37.42,-952.00,1188.00,102.00,3083.0000
47880,20.72,46.48,21.49,102593,1.634,1.695,-0.183,-0.030,-0.070,0.998,37.57,-943.00,1202.00,117.00,3083.0000
47954,20.71,46.42,21.49,102593,1.641,1.634,-0.473,-0.032,-0.065,1.004,37.24,-948.00,1188.00,112.00,3087.0000
48048,20.66,46.37,21.48,102595,1.679,1.740,-0.328,-0.031,-0.064,1.001,37.28,-943.00,1207.00,97.00,3085.0000
48124,20.66,46.27,21.46,102599,1.824,1.656,-0.580,-0.030,-0.064,1.001,37.47,-951.00,1193.00,102.00,3085.0000
48198,20.67,46.20,21.46,102599,1.489,1.878,-0.137,-0.031,-0.068,1.006,37.61,-946.00,1193.00,117.00,3083.0000
48272,20.65,46.13,21.44,102601,1.649,1.962,-0.260,-0.031,-0.070,0.999,37.24,-951.00,1207.00,107.00,3086.0000
48346,20.65,46.07,21.44,102601,1.702,1.786,-0.130,-0.033,-0.070,0.994,37.33,-952.00,1193.00,102.00,3086.0000
48425,20.64,46.02,21.41,102605,1.832,1.511,-0.321,-0.033,-0.071,0.996,37.42,-946.00,1186.00,102.00,3083.0000
48499,20.63,45.95,21.41,102605,1.893,1.397,-0.084,-0.030,-0.069,0.997,37.57,-943.00,1193.00,97.00,3085.0000
48573,20.63,45.85,21.37,102605,1.687,1.511,-0.122,-0.034,-0.068,0.998,37.47,-955.00,1193.00,95.00,3084.0000
48647,20.63,45.82,21.37,102605,1.878,1.939,-0.321,-0.028,-0.071,0.998,37.33,-946.00,1196.00,92.00,3084.0000
48721,20.62,45.72,21.34,102608,1.656,1.786,-0.107,-0.033,-0.074,1.003,37.28,-938.00,1191.00,102.00,3083.0000
48800,20.60,45.66,21.34,102608,1.802,1.450,-0.061,-0.033,-0.072,0.995,37.28,-952.00,1191.00,107.00,3087.0000
48874,20.60,45.59,21.33,102614,1.840,1.626,-0.092,-0.031,-0.066,1.000,37.28,-951.00,1196.00,105.00,3083.0000
48948,20.59,45.49,21.33,102614,1.733,1.435,-0.359,-0.033,-0.068,1.000,37.28,-946.00,1202.00,107.00,3085.0000
49022,20.58,45.39,21.32,102614,1.588,1.565,-0.496,-0.029,-0.066,0.995,37.33,-948.00,1205.00,115.00,3085.0000
49103,20.56,45.37,21.32,102614,1.527,1.771,-0.305,-0.034,-0.071,1.001,37.28,-957.00,1188.00,107.00,3083.0000
49177,20.55,45.24,21.30,102615,1.786,1.603,-0.351,-0.033,-0.069,0.993,37.28,-952.00,1191.00,105.00,3083.0000
49251,20.55,45.17,21.30,102615,1.504,1.740,-0.084,-0.031,-0.069,0.996,37.24,-957.00,1215.00,102.00,3083.0000
49325,20.56,45.11,21.29,102617,1.725,1.824,-0.481,-0.037,-0.069,1.003,37.42,-951.00,1186.00,115.00,3084.0000
49401,20.53,45.06,21.29,102617,1.611,1.565,-0.405,-0.031,-0.065,0.999,37.24,-951.00,1196.00,112.00,3086.0000
49480,20.53,44.97,21.27,102618,1.840,1.847,-0.069,-0.030,-0.067,1.000,37.28,-957.00,1181.00,107.00,3084.0000
49554,20.51,44.92,21.27,102618,1.763,1.573,-0.260,-0.030,-0.065,0.999,37.28,-951.00,1196.00,115.00,3082.0000
49628,20.50,44.84,21.26,102623,1.519,1.542,-0.435,-0.041,-0.073,0.999,37.28,-948.00,1198.00,102.00,3082.0000
49702,20.50,44.76,21.26,102623,1.916,1.656,-0.298,-0.033,-0.069,0.999,37.33,-951.00,1193.00,107.00,3083.0000
49776,20.50,44.69,21.25,102626,1.878,1.672,-0.427,-0.029,-0.067,0.997,37.28,-936.00,1193.00,100.00,3083.0000
49855,20.48,44.65,21.25,102626,1.763,1.870,-0.344,-0.030,-0.069,1.004,37.24,-960.00,1188.00,100.00,3081.0000
49929,20.48,44.56,21.24,102623,1.641,1.679,-0.229,-0.030,-0.069,0.998,37.24,-948.00,1201.00,105.00,3085.0000
50003,20.48,44.49,21.24,102623,1.550,1.779,-0.519,-0.033,-0.067,0.997,37.14,-938.00,1193.00,105.00,3083.0000
50077,20.48,44.39,21.22,102624,1.992,1.588,-0.366,-0.035,-0.064,1.000,37.28,-938.00,1191.00,107.00,3086.0000
50156,20.46,44.36,21.22,102624,1.588,1.489,-0.061,-0.034,-0.069,1.000,37.33,-943.00,1198.00,102.00,3083.0000
50230,20.45,44.24,21.21,102627,1.977,1.618,-0.023,-0.027,-0.067,1.003,37.28,-955.00,1198.00,87.00,3085.0000
50304,20.46,44.15,21.21,102627,1.794,1.511,-0.229,-0.035,-0.069,0.995,37.33,-962.00,1207.00,115.00,3083.0000
50378,20.44,44.08,21.19,102625,1.740,1.710,-0.183,-0.027,-0.073,1.004,37.14,-946.00,1183.00,105.00,3083.0000
50452,20.43,44.00,21.19,102625,1.771,1.824,-0.275,-0.029,-0.064,0.996,37.24,-946.00,1196.00,115.00,3084.0000
50531,20.43,43.92,21.18,102631,1.756,1.649,-0.244,-0.033,-0.065,1.002,37.28,-948.00,1196.00,92.00,3083.0000
50605,20.41,43.83,21.18,102631,1.718,1.824,-0.321,-0.036,-0.064,1.003,37.14,-946.00,1183.00,107.00,3081.0000
50679,20.42,43.76,21.15,102629,1.672,1.817,-0.397,-0.033,-0.068,0.997,37.28,-946.00,1193.00,117.00,3083.0000
50753,20.41,43.69,21.15,102629,1.748,1.779,-0.061,-0.026,-0.066,1.000,37.24,-957.00,1210.00,100.00,3086.0000
50827,20.40,43.61,21.14,102629,1.695,1.748,-0.122,-0.036,-0.066,0.998,37.05,-948.00,1202.00,110.00,3083.0000
50921,20.35,43.55,21.11,102627,1.725,1.641,-0.374,-0.031,-0.070,1.000,37.24,-957.00,1188.00,105.00,3085.0000
50997,20.35,43.43,21.11,102627,1.977,1.511,-0.176,-0.036,-0.065,1.004,37.24,-948.00,1193.00,107.00,3083.0000
51071,20.35,43.35,21.09,102632,1.534,1.748,-0.069,-0.032,-0.065,1.001,37.14,-941.00,1191.00,97.00,3083.0000
51145,20.35,43.24,21.09,102632,1.794,1.733,-0.122,-0.036,-0.069,1.000,37.28,-967.00,1193.00,112.00,3084.0000
51219,20.33,43.14,21.06,102633,1.863,1.649,-0.527,-0.032,-0.065,0.995,37.05,-962.00,1191.00,112.00,3085.0000
51298,20.31,43.05,21.06,102633,1.756,1.588,-0.130,-0.033,-0.067,0.994,37.28,-928.00,1201.00,92.00,3082.0000
51372,20.31,42.94,21.03,102631,1.695,1.313,-0.282,-0.030,-0.067,1.005,37.24,-948.00,1188.00,90.00,3083.0000
51446,20.30,42.87,21.03,102631,1.916,1.443,-0.313,-0.036,-0.068,0.999,37.05,-946.00,1198.00,112.00,3085.0000
51520,20.28,42.78,20.99,102629,1.863,1.718,-0.313,-0.031,-0.067,1.004,37.05,-938.00,1178.00,110.00,3085.0000
51599,20.27,42.66,20.99,102629,1.664,1.695,-0.290,-0.031,-0.065,0.999,36.95,-951.00,1198.00,110.00,3085.0000
51673,20.25,42.58,20.94,102630,1.656,1.748,-0.115,-0.030,-0.067,0.999,37.14,-951.00,1205.00,107.00,3085.0000
51747,20.22,42.46,20.94,102630,1.916,1.626,-0.321,-0.033,-0.066,0.995,37.05,-946.00,1196.00,92.00,3085.0000
51821,20.21,42.35,20.88,102633,1.618,2.008,-0.206,-0.028,-0.069,0.995,37.24,-948.00,1198.00,110.00,3083.0000
51895,20.19,42.25,20.88,102633,1.786,1.618,-0.504,-0.031,-0.066,1.002,37.05,-951.00,1207.00,102.00,3081.0000
51974,20.17,42.18,20.81,102630,1.824,1.664,-0.168,-0.029,-0.068,1.001,37.14,-955.00,1193.00,87.00,3085.0000
52048,20.15,42.05,20.81,102630,1.786,1.672,-0.115,-0.029,-0.066,1.001,37.14,-955.00,1188.00,100.00,3084.0000
52122,20.13,41.98,20.76,102632,1.809,1.824,-0.305,-0.034,-0.066,1.003,36.95,-962.00,1198.00,110.00,3083.0000
52196,20.11,41.87,20.76,102632,1.931,1.733,-0.305,-0.032,-0.069,0.999,37.14,-952.00,1202.00,90.00,3083.0000
52270,20.08,41.78,20.71,102634,1.870,1.710,-0.260,-0.031,-0.063,0.999,37.28,-955.00,1196.00,97.00,3085.0000
52349,20.07,41.71,20.71,102634,1.626,1.344,-0.237,-0.030,-0.067,0.998,37.05,-941.00,1201.00,112.00,3083.0000
52423,20.06,41.55,20.67,102634,1.893,1.878,-0.130,-0.032,-0.071,0.995,36.81,-941.00,1193.00,102.00,3085.0000
52497,20.02,41.46,20.67,102634,1.649,1.550,-0.397,-0.029,-0.066,1.000,37.05,-955.00,1205.00,102.00,3083.0000
52571,20.00,41.36,20.61,102631,1.756,1.832,-0.053,-0.033,-0.066,0.994,36.81,-955.00,1191.00,100.00,3085.0000
52650,19.97,41.29,20.61,102631,1.809,1.656,-0.267,-0.031,-0.064,1.005,36.95,-960.00,1207.00,105.00,3083.0000
52724,19.96,41.16,20.58,102635,1.718,1.496,-0.435,-0.029,-0.066,1.001,36.77,-948.00,1201.00,100.00,3081.0000
52798,19.93,41.06,20.58,102635,2.145,1.504,-0.351,-0.028,-0.069,0.995,36.91,-955.00,1198.00,105.00,3083.0000
52872,19.90,40.98,20.54,102633,1.580,1.618,-0.290,-0.033,-0.069,0.998,37.09,-941.00,1191.00,112.00,3083.0000
52946,19.86,40.88,20.54,102633,1.985,1.466,-0.023,-0.032,-0.068,0.999,36.91,-960.00,1198.00,105.00,3083.0000
53025,19.84,40.81,20.52,102635,2.000,1.557,-0.366,-0.029,-0.068,1.002,36.91,-955.00,1205.00,112.00,3083.0000
53099,19.84,40.68,20.52,102635,1.718,1.718,-0.191,-0.034,-0.070,0.999,36.77,-943.00,1202.00,112.00,3083.0000
53173,19.81,40.59,20.48,102636,1.687,1.863,-0.260,-0.030,-0.073,1.000,36.91,-951.00,1193.00,120.00,3083.0000
53247,19.79,40.50,20.48,102636,1.519,1.557,-0.321,-0.031,-0.069,0.998,36.81,-955.00,1196.00,105.00,3083.0000
53323,19.78,40.42,20.45,102632,1.725,1.595,-0.504,-0.032,-0.069,0.997,36.95,-952.00,1188.00,105.00,3082.0000
53557,19.60,40.22,20.42,102634,1.779,1.809,-0.344,-0.033,-0.066,1.008,36.81,-952.00,1181.00,110.00,3083.0000
53732,19.52,40.00,20.39,102634,1.809,1.481,-0.290,-0.031,-0.072,0.990,36.58,-946.00,1196.00,100.00,3082.0000
53921,19.47,39.82,20.37,102634,1.740,1.550,-0.412,-0.035,-0.066,0.999,36.77,-946.00,1198.00,115.00,3084.0000
54105,19.42,39.63,20.36,102637,1.733,1.595,-0.229,-0.031,-0.066,1.002,36.58,-948.00,1196.00,112.00,3082.0000
54280,19.38,39.50,20.36,102633,1.794,1.740,-0.313,-0.032,-0.067,1.001,36.77,-951.00,1198.00,95.00,3085.0000
54450,19.36,39.34,20.35,102637,1.725,1.832,-0.229,-0.030,-0.067,0.997,36.62,-951.00,1193.00,102.00,3083.0000
54537,19.38,39.18,20.35,102637,1.740,1.763,-0.267,-0.035,-0.066,1.000,36.77,-952.00,1205.00,105.00,3085.0000
54611,19.40,39.05,20.31,102636,1.679,1.626,-0.221,-0.029,-0.066,0.999,36.53,-952.00,1193.00,95.00,3083.0000
54685,19.41,38.97,20.31,102636,1.634,1.695,-0.366,-0.035,-0.071,0.996,36.77,-960.00,1198.00,105.00,3086.0000
54764,19.41,38.91,20.28,102636,1.824,1.489,-0.237,-0.031,-0.068,0.997,36.58,-955.00,1176.00,100.00,3083.0000
54838,19.43,38.83,20.28,102636,1.733,1.557,-0.305,-0.030,-0.067,1.000,36.91,-951.00,1196.00,95.00,3081.0000
54912,19.43,38.77,20.26,102636,1.725,1.802,-0.366,-0.032,-0.068,0.996,36.72,-960.00,1202.00,95.00,3083.0000
54986,19.41,38.70,20.26,102636,1.534,1.595,-0.229,-0.027,-0.068,0.998,36.53,-965.00,1193.00,100.00,3084.0000
55060,19.40,38.62,20.20,102633,1.748,1.595,-0.443,-0.034,-0.069,1.003,36.62,-955.00,1198.00,117.00,3087.0000
55139,19.39,38.54,20.20,102633,1.824,1.710,-0.374,-0.035,-0.067,0.999,36.62,-951.00,1196.00,100.00,3084.0000
55213,19.39,38.47,20.16,102632,1.634,1.702,-0.290,-0.034,-0.066,0.999,36.77,-951.00,1196.00,110.00,3083.0000
55287,19.39,38.41,20.16,102632,1.656,1.473,-0.237,-0.037,-0.065,1.001,36.62,-965.00,1193.00,115.00,3083.0000
55361,19.38,38.32,20.13,102634,1.649,1.626,-0.298,-0.031,-0.069,0.999,36.62,-948.00,1193.00,115.00,3087.0000
55435,19.36,38.28,20.13,102634,1.916,1.580,-0.160,-0.035,-0.069,0.993,36.53,-952.00,1186.00,92.00,3084.0000
55514,19.35,38.21,20.12,102638,1.962,1.626,-0.107,-0.033,-0.068,0.999,36.58,-951.00,1201.00,97.00,3085.0000
55588,19.34,38.15,20.12,102638,1.771,1.573,-0.076,-0.029,-0.068,1.004,36.58,-957.00,1193.00,97.00,3083.0000
55662,19.33,38.09,20.12,102643,1.565,1.702,-0.237,-0.028,-0.067,0.997,36.53,-943.00,1201.00,105.00,3082.0000
55736,19.32,38.02,20.12,102643,2.130,1.687,-0.214,-0.031,-0.069,1.003,36.81,-951.00,1193.00,92.00,3085.0000
55815,19.30,37.96,20.11,102634,1.634,1.595,-0.008,-0.037,-0.071,0.996,36.53,-960.00,1193.00,117.00,3087.0000
55889,19.30,37.89,20.11,102634,1.634,1.695,-0.252,-0.032,-0.070,0.992,36.72,-955.00,1201.00,95.00,3086.0000
55963,19.30,37.81,20.10,102635,1.618,1.450,-0.122,-0.026,-0.067,0.991,36.58,-941.00,1186.00,125.00,3085.0000
56037,19.28,37.77,20.10,102635,1.824,1.534,-0.282,-0.032,-0.067,0.994,36.58,-952.00,1210.00,95.00,3082.0000
56111,19.27,37.68,20.08,102637,1.901,1.649,-0.496,-0.027,-0.068,0.999,36.72,-960.00,1210.00,105.00,3085.0000
56190,19.26,37.65,20.08,102637,2.008,1.603,-0.252,-0.028,-0.067,0.998,36.39,-948.00,1198.00,100.00,3086.0000
56264,19.25,37.58,20.07,102638,1.626,1.618,-0.046,-0.035,-0.070,0.998,36.53,-957.00,1191.00,100.00,3084.0000
56338,19.25,37.50,20.07,102638,1.809,1.405,-0.038,-0.030,-0.067,0.998,36.44,-952.00,1196.00,117.00,3082.0000
56412,19.23,37.47,20.05,102639,1.748,1.649,-0.275,-0.032,-0.066,0.998,36.53,-948.00,1198.00,112.00,3083.0000
56486,19.22,37.39,20.05,102639,1.832,1.870,-0.267,-0.030,-0.069,0.997,36.29,-952.00,1202.00,102.00,3081.0000
56565,19.21,37.31,20.04,102636,1.733,1.450,-0.107,-0.027,-0.067,0.998,36.58,-948.00,1188.00,97.00,3084.0000
56639,19.18,37.22,20.04,102636,1.802,1.672,-0.237,-0.034,-0.071,0.998,36.53,-948.00,1191.00,95.00,3087.0000
56713,19.16,37.15,20.01,102639,1.641,1.649,-0.290,-0.030,-0.070,1.005,36.53,-952.00,1186.00,107.00,3085.0000
56787,19.15,37.08,20.01,102639,1.908,1.573,-0.389,-0.033,-0.069,0.999,36.20,-946.00,1196.00,92.00,3085.0000
56861,19.15,37.02,19.99,102642,1.740,1.534,-0.153,-0.025,-0.070,1.000,36.29,-946.00,1202.00,115.00,3085.0000
56934,19.14,36.94,19.99,102642,1.802,1.840,-0.061,-0.033,-0.065,1.000,36.44,-955.00,1196.00,92.00,3082.0000
57008,19.13,36.90,19.96,102640,1.550,1.786,-0.427,-0.031,-0.065,0.998,36.39,-955.00,1193.00,110.00,3085.0000
57082,19.11,36.84,19.96,102640,1.992,1.679,-0.351,-0.028,-0.070,1.002,36.39,-962.00,1196.00,92.00,3083.0000
57156,19.10,36.74,19.93,102640,1.611,1.573,-0.313,-0.028,-0.064,1.001,36.53,-948.00,1191.00,100.00,3083.0000
57250,19.05,36.71,19.89,102639,1.794,1.618,-0.244,-0.029,-0.068,1.000,36.11,-960.00,1202.00,90.00,3083.0000
57326,19.05,36.62,19.89,102639,1.649,1.985,-0.229,-0.034,-0.067,1.000,36.06,-955.00,1198.00,120.00,3083.0000
57400,19.04,36.53,19.86,102641,1.786,1.641,-0.053,-0.030,-0.066,0.997,36.29,-933.00,1193.00,102.00,3085.0000
57474,19.03,36.43,19.86,102641,1.626,1.420,-0.053,-0.031,-0.068,0.997,36.39,-936.00,1207.00,107.00,3085.0000
57548,19.04,36.38,19.84,102644,1.550,1.725,-0.115,-0.029,-0.068,0.999,36.06,-965.00,1207.00,115.00,3071.0000
57627,19.03,36.36,19.84,102644,1.634,1.458,-0.221,-0.029,-0.070,0.996,36.11,-951.00,1198.00,112.00,3083.0000
57701,19.00,36.28,19.83,102638,1.687,1.664,-0.076,-0.033,-0.070,0.995,36.39,-946.00,1198.00,110.00,3083.0000
57775,19.03,36.21,19.83,102638,1.824,1.748,-0.160,-0.033,-0.067,0.997,36.11,-946.00,1188.00,100.00,3082.0000
57849,19.01,36.18,19.82,102641,1.840,1.794,-0.198,-0.031,-0.066,0.995,36.11,-946.00,1202.00,107.00,3083.0000
57923,19.01,36.13,19.82,102641,1.588,1.817,-0.374,-0.028,-0.071,1.005,36.01,-951.00,1198.00,97.00,3081.0000
58002,19.00,36.09,19.81,102643,1.908,1.305,-0.336,-0.027,-0.065,0.995,36.25,-943.00,1196.00,97.00,3083.0000
58076,19.00,36.00,19.81,102643,1.641,1.740,-0.252,-0.031,-0.067,0.997,36.06,-948.00,1205.00,100.00,3083.0000
58150,19.00,35.95,19.80,102640,1.748,1.565,-0.282,-0.025,-0.070,0.998,36.11,-951.00,1202.00,107.00,3082.0000
58236,18.98,35.90,19.80,102640,1.672,1.672,-0.359,-0.031,-0.070,0.999,36.20,-936.00,1207.00,115.00,3083.0000
58324,18.95,35.83,19.79,102643,1.580,1.725,-0.382,-0.031,-0.066,0.992,36.11,-951.00,1193.00,107.00,3084.0000
58398,18.96,35.78,19.79,102643,1.786,1.649,-0.099,-0.032,-0.065,0.990,36.06,-946.00,1191.00,102.00,3085.0000
58472,18.95,35.67,19.76,102643,1.763,1.695,-0.336,-0.034,-0.067,0.998,36.20,-962.00,1201.00,105.00,3083.0000
58546,18.94,35.63,19.76,102643,1.817,1.725,-0.145,-0.027,-0.067,0.998,36.11,-943.00,1210.00,117.00,3085.0000
58620,18.93,35.58,19.74,102644,1.595,1.473,-0.374,-0.031,-0.067,1.000,36.06,-957.00,1196.00,92.00,3082.0000
58699,18.91,35.52,19.74,102644,1.779,1.649,0.053,-0.034,-0.067,0.995,36.20,-967.00,1186.00,87.00,3083.0000
58773,18.88,35.46,19.72,102642,1.626,1.664,-0.359,-0.027,-0.070,0.998,36.29,-952.00,1193.00,102.00,3084.0000
58847,18.88,35.41,19.72,102642,1.779,1.710,-0.290,-0.031,-0.070,1.002,36.01,-960.00,1196.00,92.00,3085.0000
58921,18.87,35.35,19.70,102643,1.656,1.641,-0.359,-0.030,-0.067,0.993,36.06,-967.00,1201.00,105.00,3085.0000
58995,18.86,35.32,19.70,102643,1.870,1.878,-0.397,-0.034,-0.069,0.993,36.06,-946.00,1186.00,105.00,3085.0000
59074,18.85,35.28,19.69,102643,1.595,1.893,-0.313,-0.029,-0.065,0.995,36.11,-951.00,1198.00,100.00,3086.0000
59148,18.85,35.21,19.69,102643,1.725,1.740,-0.366,-0.031,-0.066,1.001,36.06,-952.00,1198.00,110.00,3083.0000
59222,18.84,35.17,19.68,102646,1.809,1.763,-0.084,-0.032,-0.070,1.002,35.87,-951.00,1207.00,115.00,3085.0000
59296,18.82,35.12,19.68,102646,1.786,1.519,-0.183,-0.030,-0.066,0.996,36.01,-955.00,1196.00,97.00,3084.0000
59375,18.82,35.09,19.66,102644,1.870,1.542,-0.191,-0.031,-0.066,1.000,36.11,-967.00,1202.00,107.00,3085.0000
59449,18.81,35.03,19.66,102644,1.885,1.962,0.000,-0.030,-0.070,0.996,35.78,-948.00,1202.00,97.00,3083.0000
59523,18.81,34.96,19.65,102648,1.847,1.573,-0.305,-0.029,-0.070,1.000,36.11,-943.00,1188.00,105.00,3085.0000
59597,18.79,34.93,19.65,102648,1.687,1.802,-0.153,-0.033,-0.068,0.995,36.11,-960.00,1202.00,95.00,3085.0000
59671,18.78,34.85,19.63,102645,1.649,1.588,-0.435,-0.028,-0.065,0.996,36.01,-965.00,1188.00,92.00,3086.0000
59750,18.75,34.79,19.63,102645,1.656,1.573,-0.206,-0.034,-0.066,0.994,36.01,-955.00,1186.00,112.00,3085.0000
59824,18.73,34.71,19.57,102644,1.702,1.756,-0.344,-0.032,-0.067,0.998,35.87,-946.00,1205.00,117.00,3083.0000
59898,18.72,34.66,19.57,102644,2.008,1.626,-0.252,-0.032,-0.066,0.993,36.11,-946.00,1188.00,115.00,3083.0000
59972,18.70,34.59,19.49,102644,1.779,1.954,-0.290,-0.029,-0.068,1.004,36.01,-960.00,1201.00,92.00,3082.0000
60046,18.68,34.52,19.49,102644,1.916,1.618,-0.053,-0.029,-0.068,0.993,35.78,-955.00,1196.00,110.00,3082.0000
60140,18.64,34.50,19.40,102644,1.725,1.779,-0.420,-0.034,-0.072,0.995,36.01,-960.00,1207.00,102.00,3085.0000
60222,18.62,34.42,19.33,102648,1.924,1.733,-0.298,-0.030,-0.069,1.003,35.68,-955.00,1205.00,102.00,3086.0000
60296,18.62,34.33,19.33,102648,1.847,1.634,-0.389,-0.027,-0.068,1.003,35.92,-960.00,1201.00,100.00,3085.0000
60370,18.60,34.27,19.27,102646,1.939,1.702,-0.053,-0.036,-0.068,0.999,35.92,-952.00,1191.00,112.00,3081.0000
60444,18.58,34.22,19.27,102646,1.481,1.466,-0.206,-0.030,-0.068,0.999,36.01,-957.00,1205.00,95.00,3086.0000
60523,18.56,34.12,19.21,102645,1.855,1.832,-0.038,-0.026,-0.068,0.994,35.92,-952.00,1196.00,100.00,3083.0000
60597,18.54,34.08,19.21,102645,1.786,1.626,-0.420,-0.032,-0.069,1.000,35.92,-955.00,1202.00,95.00,3084.0000
60671,18.52,34.02,19.18,102645,1.733,1.695,-0.107,-0.028,-0.071,0.989,35.68,-957.00,1191.00,102.00,3085.0000
60745,18.50,33.97,19.18,102645,1.748,1.687,0.092,-0.032,-0.067,0.997,35.73,-948.00,1196.00,110.00,3082.0000
60824,18.49,33.92,19.15,102643,1.847,1.725,-0.374,-0.030,-0.066,1.001,36.06,-960.00,1196.00,110.00,3083.0000
60898,18.48,33.83,19.15,102643,1.809,1.756,-0.481,-0.031,-0.067,0.996,35.78,-965.00,1186.00,95.00,3084.0000
60972,18.47,33.77,19.12,102645,1.718,1.725,-0.206,-0.035,-0.068,0.999,35.87,-965.00,1191.00,105.00,3083.0000
61046,18.45,33.72,19.12,102645,1.786,1.695,-0.435,-0.028,-0.068,0.998,35.87,-955.00,1193.00,105.00,3083.0000
61120,18.43,33.66,19.09,102643,1.534,1.702,-0.374,-0.029,-0.068,1.002,35.78,-951.00,1196.00,95.00,3083.0000
61199,18.41,33.63,19.09,102643,1.908,2.069,-0.359,-0.036,-0.067,1.000,35.68,-957.00,1212.00,90.00,3084.0000
61273,18.38,33.54,19.05,102642,2.015,1.489,-0.336,-0.030,-0.062,1.000,35.59,-943.00,1202.00,87.00,3083.0000
61347,18.36,33.49,19.05,102642,1.679,1.702,-0.145,-0.031,-0.071,0.993,35.73,-952.00,1202.00,105.00,3085.0000
61421,18.32,33.41,19.01,102645,1.718,1.710,-0.191,-0.028,-0.069,0.997,35.78,-955.00,1191.00,100.00,3083.0000
61495,18.31,33.37,19.01,102645,1.756,1.710,-0.435,-0.035,-0.069,1.000,35.73,-960.00,1201.00,105.00,3085.0000
61574,18.28,33.30,18.99,102642,1.710,1.954,-0.366,-0.036,-0.066,0.996,35.78,-962.00,1198.00,105.00,3082.0000
61648,18.27,33.23,18.99,102642,1.573,1.695,-0.084,-0.027,-0.067,0.997,35.73,-970.00,1196.00,107.00,3085.0000
61722,18.27,33.20,19.01,102644,1.893,1.664,-0.359,-0.033,-0.064,0.998,35.59,-952.00,1207.00,110.00,3085.0000
61796,18.26,33.16,19.01,102644,1.641,1.794,-0.221,-0.031,-0.072,0.991,35.40,-948.00,1220.00,100.00,3087.0000
61875,18.23,33.10,19.03,102646,2.000,1.771,-0.351,-0.030,-0.068,0.994,35.68,-957.00,1201.00,105.00,3085.0000
61949,18.24,33.05,19.03,102646,1.878,1.580,-0.290,-0.030,-0.068,0.992,35.68,-951.00,1196.00,100.00,3084.0000
62023,18.24,33.02,19.04,102644,1.817,1.756,-0.137,-0.028,-0.068,0.995,35.73,-946.00,1198.00,107.00,3085.0000
62097,18.21,32.98,19.04,102644,1.718,1.504,-0.053,-0.029,-0.066,0.996,35.54,-946.00,1196.00,110.00,3079.0000
62171,18.21,32.94,19.05,102644,1.885,1.504,-0.229,-0.027,-0.068,1.000,35.49,-957.00,1188.00,102.00,3083.0000
62250,18.21,32.92,19.05,102644,1.840,1.664,-0.313,-0.032,-0.069,0.997,35.54,-962.00,1183.00,112.00,3084.0000
62324,18.22,32.83,19.06,102642,1.786,1.931,-0.145,-0.027,-0.067,0.999,35.49,-957.00,1181.00,117.00,3085.0000
62398,18.21,32.81,19.06,102642,1.786,1.641,-0.344,-0.027,-0.070,1.000,35.59,-955.00,1202.00,82.00,3082.0000
62489,18.19,32.80,19.06,102643,1.817,1.557,-0.496,-0.030,-0.067,1.000,35.59,-946.00,1202.00,95.00,3083.0000
62565,18.20,32.71,19.07,102644,1.824,1.840,-0.519,-0.028,-0.066,0.999,35.49,-951.00,1183.00,107.00,3084.0000
62644,18.19,32.69,19.07,102644,1.710,1.840,-0.076,-0.030,-0.067,0.990,35.49,-955.00,1188.00,102.00,3086.0000
62718,18.19,32.64,19.06,102645,1.832,1.687,-0.267,-0.029,-0.067,0.995,35.49,-962.00,1201.00,97.00,3085.0000
62792,18.18,32.57,19.06,102645,1.672,1.626,-0.069,-0.027,-0.067,0.994,35.49,-951.00,1196.00,115.00,3083.0000
62866,18.18,32.50,19.03,102642,1.733,1.931,-0.344,-0.030,-0.068,0.990,35.35,-960.00,1202.00,117.00,3085.0000
62940,18.18,32.45,19.03,102642,1.832,1.649,-0.183,-0.024,-0.066,0.995,35.49,-960.00,1198.00,102.00,3085.0000
63035,18.11,32.42,18.94,102643,1.893,1.740,-0.412,-0.030,-0.071,1.000,35.40,-952.00,1205.00,87.00,3084.0000
63111,18.12,32.29,18.94,102643,1.809,1.939,-0.344,-0.025,-0.069,0.994,35.26,-965.00,1207.00,107.00,3083.0000
63185,18.09,32.22,18.87,102645,1.817,1.634,-0.389,-0.028,-0.069,0.993,35.35,-952.00,1202.00,112.00,3085.0000
63259,18.08,32.16,18.87,102645,1.931,1.763,-0.412,-0.027,-0.068,0.997,35.35,-948.00,1207.00,90.00,3082.0000
63338,18.06,32.11,18.84,102640,1.893,1.603,-0.107,-0.029,-0.069,0.996,35.26,-952.00,1198.00,95.00,3083.0000
63412,18.04,32.07,18.84,102640,2.069,1.557,-0.336,-0.027,-0.068,0.990,35.40,-951.00,1201.00,107.00,3083.0000
63486,18.04,32.02,18.84,102640,1.695,1.840,0.061,-0.031,-0.066,0.992,35.49,-951.00,1193.00,115.00,3083.0000
63560,18.03,32.00,18.84,102640,2.038,1.542,-0.359,-0.032,-0.072,0.993,35.49,-960.00,1202.00,97.00,3086.0000
63634,18.02,31.92,18.85,102639,1.702,1.588,-0.405,-0.029,-0.068,0.999,35.49,-941.00,1196.00,95.00,3082.0000
63713,18.00,31.91,18.85,102639,1.863,1.718,-0.298,-0.027,-0.066,1.000,35.35,-957.00,1196.00,95.00,3082.0000
63787,17.99,31.84,18.83,102642,1.695,1.588,-0.267,-0.036,-0.071,1.001,35.35,-951.00,1196.00,107.00,3082.0000
63861,17.98,31.77,18.83,102642,1.702,1.679,-0.321,-0.028,-0.070,0.997,35.40,-938.00,1217.00,90.00,3083.0000
63935,17.96,31.72,18.79,102640,1.794,1.603,-0.153,-0.030,-0.067,0.991,35.17,-952.00,1202.00,95.00,3082.0000
64009,17.95,31.70,18.79,102640,1.878,1.542,-0.328,-0.031,-0.070,0.999,35.26,-967.00,1193.00,112.00,3071.0000
64088,17.94,31.63,18.77,102642,1.901,1.618,-0.244,-0.028,-0.070,0.998,35.26,-955.00,1207.00,110.00,3081.0000
64162,17.92,31.59,18.77,102642,2.008,1.565,-0.191,-0.036,-0.066,1.002,35.26,-957.00,1207.00,102.00,3082.0000
64236,17.91,31.56,18.77,102640,1.832,1.916,-0.015,-0.028,-0.069,0.992,35.17,-965.00,1207.00,97.00,3083.0000
64310,17.91,31.53,18.77,102640,1.802,1.748,-0.137,-0.032,-0.069,0.995,35.17,-960.00,1196.00,102.00,3083.0000
64389,17.89,31.48,18.76,102643,1.863,1.565,-0.282,-0.028,-0.068,0.998,35.26,-960.00,1205.00,100.00,3083.0000
64463,17.88,31.40,18.76,102643,1.710,1.649,-0.046,-0.027,-0.070,0.999,35.26,-957.00,1205.00,102.00,3084.0000
64537,17.87,31.36,18.71,102644,2.015,1.389,-0.221,-0.030,-0.068,0.995,35.21,-980.00,1198.00,97.00,3071.0000
64611,17.86,31.30,18.71,102644,1.809,1.664,-0.031,-0.027,-0.069,0.995,35.26,-951.00,1201.00,95.00,3081.0000
64685,17.84,31.26,18.63,102643,1.939,1.901,-0.237,-0.028,-0.064,0.997,35.17,-960.00,1191.00,107.00,3071.0000
64764,17.81,31.20,18.63,102643,1.542,1.794,-0.160,-0.033,-0.072,0.996,35.07,-955.00,1191.00,107.00,3083.0000
64838,17.79,31.14,18.59,102641,1.679,1.824,-0.145,-0.029,-0.066,0.997,35.17,-951.00,1210.00,100.00,3083.0000
64912,17.78,31.11,18.59,102641,2.000,1.557,-0.359,-0.036,-0.072,0.983,35.17,-957.00,1201.00,120.00,3083.0000
64986,17.77,31.06,18.57,102643,1.771,1.733,-0.130,-0.023,-0.073,0.992,35.17,-946.00,1196.00,110.00,3085.0000
65060,17.75,31.03,18.57,102643,1.786,1.466,-0.427,-0.028,-0.073,0.990,35.17,-948.00,1207.00,102.00,3082.0000
65139,17.73,30.99,18.54,102639,1.664,1.748,-0.031,-0.028,-0.073,0.989,35.17,-952.00,1207.00,105.00,3082.0000
65213,17.71,30.92,18.54,102646,1.748,1.794,-0.183,-0.031,-0.071,0.994,35.07,-967.00,1196.00,95.00,3081.0000
65287,17.69,30.87,18.49,102639,1.679,1.450,-0.244,-0.025,-0.071,0.989,35.02,-962.00,1191.00,110.00,3082.0000
65361,17.68,30.82,18.49,102649,1.794,1.519,-0.237,-0.029,-0.068,1.000,35.26,-948.00,1207.00,112.00,3083.0000
65435,17.66,30.77,18.45,102642,1.885,1.679,-0.046,-0.034,-0.067,0.993,34.74,-948.00,1207.00,97.00,3082.0000
65514,17.64,30.73,18.41,102642,1.702,1.725,-0.183,-0.033,-0.068,0.989,35.02,-952.00,1196.00,100.00,3083.0000
65588,17.63,30.70,18.41,102642,1.695,1.687,-0.183,-0.025,-0.063,0.991,35.02,-951.00,1188.00,105.00,3082.0000
65662,17.61,30.63,18.38,102643,1.969,1.443,-0.359,-0.033,-0.071,0.996,34.84,-957.00,1207.00,105.00,3083.0000
65736,17.60,30.63,18.38,102643,1.847,1.618,-0.374,-0.028,-0.072,0.994,35.17,-955.00,1196.00,97.00,3081.0000
65830,17.57,30.59,18.36,102640,1.947,1.748,-0.252,-0.032,-0.071,1.000,34.98,-967.00,1198.00,100.00,3085.0000
65906,17.55,30.50,18.36,102640,1.901,1.863,-0.046,-0.032,-0.064,0.995,35.02,-962.00,1201.00,107.00,3083.0000
65980,17.54,30.44,18.34,102638,1.771,1.672,-0.115,-0.028,-0.066,0.996,35.17,-962.00,1201.00,90.00,3071.0000
66054,17.52,30.41,18.34,102638,1.580,1.626,-0.351,-0.032,-0.065,0.997,34.98,-952.00,1205.00,97.00,3082.0000
66128,17.52,30.34,18.31,102640,1.832,1.489,-0.267,-0.030,-0.066,0.995,35.21,-965.00,1196.00,117.00,3084.0000
66207,17.50,30.32,18.31,102640,1.992,1.420,-0.130,-0.035,-0.068,0.991,35.07,-960.00,1202.00,110.00,3083.0000
66281,17.50,30.28,18.30,102637,1.969,1.634,-0.336,-0.030,-0.069,0.996,34.74,-957.00,1201.00,92.00,3083.0000
66355,17.48,30.24,18.30,102637,1.740,1.595,-0.336,-0.035,-0.067,0.993,34.74,-955.00,1201.00,95.00,3082.0000
66429,17.47,30.21,18.30,102637,1.901,1.901,-0.183,-0.029,-0.068,0.986,35.02,-952.00,1207.00,117.00,3082.0000
66518,17.43,30.22,18.30,102637,2.145,1.618,-0.336,-0.026,-0.071,0.992,35.02,-957.00,1198.00,115.00,3071.0000
66606,17.43,30.18,18.30,102641,1.695,1.779,-0.290,-0.026,-0.070,0.996,34.88,-960.00,1202.00,112.00,3082.0000
66680,17.43,30.12,18.30,102641,1.824,1.504,-0.389,-0.031,-0.068,0.993,34.88,-960.00,1217.00,107.00,3085.0000
66756,17.42,30.08,18.30,102639,1.809,1.718,-0.168,-0.029,-0.068,0.995,34.88,-962.00,1202.00,95.00,3081.0000
66830,17.42,30.05,18.30,102639,1.679,1.519,-0.412,-0.031,-0.068,0.993,34.84,-972.00,1176.00,90.00,3084.0000
66909,17.41,30.04,18.30,102639,1.870,1.702,-0.084,-0.030,-0.069,0.993,34.84,-951.00,1193.00,117.00,3082.0000
66983,17.41,30.00,18.30,102639,1.641,1.679,-0.053,-0.025,-0.065,0.996,35.02,-962.00,1205.00,97.00,3086.0000
67057,17.42,29.96,18.30,102639,1.847,1.740,-0.069,-0.028,-0.069,0.996,34.98,-962.00,1207.00,115.00,3085.0000
67131,17.40,29.90,18.30,102641,1.511,1.481,-0.366,-0.034,-0.068,0.991,34.74,-955.00,1205.00,115.00,3085.0000
67205,17.40,29.90,18.29,102641,1.740,1.817,-0.130,-0.029,-0.064,0.992,35.02,-957.00,1196.00,105.00,3083.0000
67284,17.39,29.85,18.26,102642,1.634,1.534,-0.168,-0.030,-0.064,0.996,34.98,-960.00,1191.00,112.00,3081.0000
67358,17.39,29.80,18.26,102642,1.847,1.924,-0.389,-0.024,-0.066,0.996,34.69,-957.00,1196.00,107.00,3082.0000
67432,17.37,29.76,18.24,102642,1.878,1.870,-0.115,-0.031,-0.062,1.000,34.84,-962.00,1210.00,105.00,3082.0000
67506,17.38,29.73,18.24,102642,1.885,1.466,-0.137,-0.029,-0.069,0.997,34.69,-962.00,1205.00,120.00,3082.0000
67580,17.36,29.69,18.22,102640,2.069,1.588,-0.008,-0.033,-0.069,0.997,34.88,-962.00,1207.00,105.00,3081.0000
67659,17.35,29.67,18.22,102640,1.969,1.779,-0.244,-0.034,-0.069,0.996,34.74,-962.00,1207.00,105.00,3086.0000
67733,17.35,29.62,18.21,102642,1.740,1.817,-0.122,-0.030,-0.066,0.997,34.74,-962.00,1212.00,112.00,3082.0000
67807,17.36,29.58,18.21,102642,1.634,1.580,-0.153,-0.030,-0.066,1.000,34.65,-957.00,1198.00,102.00,3071.0000
67881,17.35,29.54,18.19,102645,2.069,1.565,-0.344,-0.025,-0.069,0.994,34.69,-962.00,1201.00,92.00,3081.0000
67955,17.33,29.54,18.19,102645,1.939,1.756,-0.221,-0.028,-0.069,0.990,34.55,-962.00,1193.00,110.00,3082.0000
68034,17.31,29.51,18.19,102643,1.847,1.557,-0.313,-0.027,-0.069,0.990,34.74,-960.00,1201.00,112.00,3082.0000
68108,17.31,29.47,18.19,102643,1.985,1.771,-0.137,-0.025,-0.068,0.992,34.74,-955.00,1201.00,105.00,3082.0000
68182,17.28,29.43,18.17,102647,1.763,1.687,-0.153,-0.030,-0.068,0.997,34.88,-951.00,1205.00,112.00,3083.0000
68256,17.29,29.43,18.17,102647,2.023,1.656,-0.122,-0.030,-0.071,0.994,34.46,-955.00,1183.00,92.00,3082.0000
68335,17.28,29.39,18.15,102647,1.824,1.695,-0.221,-0.027,-0.071,0.995,34.55,-952.00,1207.00,100.00,3081.0000
68409,17.28,29.34,18.15,102647,1.672,1.794,-0.221,-0.025,-0.068,0.989,34.51,-948.00,1212.00,110.00,3081.0000
68483,17.28,29.30,18.14,102645,1.679,1.924,-0.176,-0.030,-0.075,0.990,34.69,-960.00,1202.00,97.00,3083.0000
68557,17.26,29.29,18.14,102645,1.916,1.672,0.137,-0.030,-0.066,0.999,34.84,-960.00,1207.00,95.00,3083.0000
68631,17.26,29.27,18.13,102642,1.779,1.802,-0.076,-0.026,-0.070,0.995,34.74,-967.00,1201.00,115.00,3083.0000
68725,17.23,29.25,18.13,102642,2.015,1.588,-0.336,-0.027,-0.063,0.994,34.55,-957.00,1215.00,95.00,3082.0000
68807,17.21,29.17,18.11,102640,1.763,1.702,-0.221,-0.029,-0.068,0.992,34.51,-943.00,1207.00,120.00,3082.0000
68881,17.21,29.14,18.11,102640,1.779,1.679,-0.237,-0.031,-0.066,0.988,34.46,-952.00,1198.00,95.00,3071.0000
68955,17.21,29.06,18.09,102644,1.832,1.687,-0.603,-0.030,-0.066,0.995,34.55,-933.00,1201.00,110.00,3071.0000
69029,17.18,29.06,18.09,102644,2.214,1.687,-0.229,-0.031,-0.069,0.997,34.46,-955.00,1202.00,102.00,3079.0000
69108,17.17,29.02,18.08,102644,2.137,1.733,-0.321,-0.024,-0.067,0.998,34.37,-922.00,1196.00,105.00,3081.0000
69182,17.16,28.97,18.08,102644,2.023,1.405,-0.206,-0.027,-0.065,0.991,34.37,-955.00,1202.00,100.00,3071.0000
69256,17.16,28.93,18.04,102640,1.824,1.389,-0.176,-0.032,-0.064,0.991,34.32,-965.00,1188.00,107.00,3081.0000
69330,17.12,28.85,18.04,102640,1.931,1.481,-0.084,-0.029,-0.064,0.997,34.51,-951.00,1183.00,115.00,3083.0000
69409,17.10,28.86,17.99,102642,1.947,1.733,-0.328,-0.028,-0.069,0.995,34.69,-948.00,1168.00,105.00,3082.0000
69483,17.08,28.79,17.99,102642,1.733,2.015,-0.267,-0.030,-0.067,0.993,34.37,-938.00,1181.00,87.00,3082.0000
69557,17.06,28.72,17.95,102644,1.725,1.725,-0.290,-0.033,-0.070,0.990,34.46,-941.00,1186.00,97.00,3083.0000
69631,17.03,28.71,17.95,102644,1.725,1.382,-0.122,-0.029,-0.068,0.990,34.46,-955.00,1173.00,117.00,3081.0000
69705,17.02,28.65,17.90,102643,1.924,1.725,-0.122,-0.027,-0.067,0.995,34.51,-955.00,1178.00,110.00,3081.0000
69784,16.98,28.64,17.90,102643,1.931,1.679,-0.122,-0.026,-0.068,0.993,34.37,-946.00,1181.00,85.00,3081.0000
69858,16.98,28.57,17.87,102643,1.695,1.802,-0.305,-0.029,-0.068,0.998,34.32,-946.00,1198.00,107.00,3071.0000
69932,16.95,28.53,17.87,102643,1.878,1.504,-0.237,-0.030,-0.069,0.993,34.13,-938.00,1201.00,90.00,3082.0000
70006,16.92,28.51,17.85,102646,1.725,1.702,-0.183,-0.030,-0.067,0.993,34.46,-946.00,1210.00,90.00,3071.0000
70080,16.90,28.46,17.85,102647,1.626,1.664,-0.305,-0.028,-0.069,0.991,34.46,-951.00,1183.00,97.00,3085.0000
70159,16.89,28.41,17.82,102642,1.832,1.695,-0.137,-0.031,-0.067,0.986,34.37,-951.00,1193.00,97.00,3083.0000
70233,16.87,28.38,17.80,102646,1.824,1.519,-0.160,-0.033,-0.068,0.995,34.65,-926.00,1188.00,95.00,3084.0000
70307,16.87,28.32,17.80,102646,1.595,1.527,-0.168,-0.029,-0.069,1.000,34.18,-923.00,1191.00,82.00,3084.0000
70381,16.85,28.31,17.79,102646,2.107,1.588,-0.107,-0.030,-0.073,0.992,34.18,-941.00,1196.00,117.00,3083.0000
70455,16.83,28.28,17.79,102646,1.870,1.496,-0.298,-0.025,-0.064,0.992,34.46,-960.00,1186.00,95.00,3081.0000
70534,16.82,28.24,17.77,102646,1.626,1.595,-0.336,-0.031,-0.073,0.993,34.37,-952.00,1186.00,105.00,3071.0000
70620,16.80,28.21,17.77,102646,1.924,1.725,-0.481,-0.027,-0.069,0.993,34.46,-941.00,1181.00,102.00,3082.0000
70703,16.77,28.17,17.76,102644,1.725,1.771,-0.237,-0.027,-0.070,0.994,34.18,-936.00,1188.00,92.00,3081.0000
70777,16.76,28.10,17.76,102644,1.824,1.626,-0.305,-0.028,-0.068,0.994,34.32,-952.00,1176.00,92.00,3071.0000
70856,16.74,28.07,17.72,102645,1.718,1.527,-0.252,-0.026,-0.073,0.995,34.37,-948.00,1178.00,105.00,3071.0000
70930,16.74,28.00,17.72,102645,1.885,1.641,-0.046,-0.031,-0.068,0.992,34.18,-941.00,1183.00,100.00,3081.0000
71006,16.72,27.97,17.66,102647,1.595,1.695,-0.168,-0.027,-0.072,0.989,34.22,-928.00,1183.00,95.00,3082.0000
71080,16.70,27.93,17.66,102647,1.817,1.496,-0.328,-0.026,-0.067,0.990,34.32,-952.00,1188.00,107.00,3081.0000
71154,16.69,27.90,17.61,102644,1.802,1.672,-0.237,-0.031,-0.066,0.994,34.46,-936.00,1181.00,102.00,3082.0000
71233,16.67,27.87,17.61,102644,1.679,1.924,0.130,-0.031,-0.066,0.990,34.18,-955.00,1178.00,102.00,3079.0000
71307,16.65,27.83,17.57,102643,2.107,1.611,-0.191,-0.025,-0.068,0.995,34.18,-948.00,1205.00,85.00,3082.0000
71381,16.62,27.80,17.57,102643,1.763,1.611,-0.374,-0.032,-0.071,0.994,34.32,-946.00,1188.00,105.00,3081.0000
71455,16.60,27.76,17.56,102644,1.664,1.908,-0.336,-0.024,-0.069,0.989,33.99,-941.00,1183.00,102.00,3081.0000
71529,16.60,27.70,17.56,102644,2.031,1.641,0.023,-0.032,-0.066,0.993,34.13,-943.00,1191.00,97.00,3083.0000
71623,16.56,27.73,17.55,102644,1.962,1.626,-0.221,-0.030,-0.067,0.992,34.18,-952.00,1193.00,110.00,3071.0000
71710,16.54,27.67,17.52,102642,1.771,1.824,-0.313,-0.027,-0.068,0.990,34.22,-933.00,1191.00,107.00,3071.0000
71784,16.52,27.57,17.52,102642,1.786,1.626,-0.336,-0.029,-0.068,0.993,34.32,-951.00,1191.00,90.00,3083.0000
71858,16.51,27.55,17.47,102640,1.939,1.779,-0.336,-0.031,-0.071,0.991,34.13,-946.00,1183.00,105.00,3081.0000
71937,16.49,27.50,17.47,102640,1.809,1.718,-0.366,-0.028,-0.066,0.995,34.22,-952.00,1191.00,97.00,3071.0000
72011,16.47,27.45,17.41,102645,1.847,1.481,-0.504,-0.026,-0.072,0.996,34.04,-943.00,1173.00,107.00,3082.0000
72085,16.47,27.39,17.41,102645,2.214,1.824,-0.130,-0.029,-0.061,0.995,34.18,-951.00,1181.00,102.00,3071.0000
72159,16.44,27.39,17.37,102643,1.679,1.450,-0.221,-0.027,-0.067,0.991,34.18,-943.00,1188.00,97.00,3082.0000
72233,16.43,27.33,17.37,102643,1.794,1.786,-0.313,-0.029,-0.073,0.993,34.04,-943.00,1178.00,105.00,3082.0000
72312,16.40,27.32,17.35,102645,1.832,1.595,-0.374,-0.026,-0.071,0.991,34.18,-955.00,1181.00,107.00,3071.0000
72386,16.41,27.27,17.35,102645,2.122,1.740,-0.099,-0.027,-0.069,0.990,34.13,-938.00,1188.00,107.00,3083.0000
72460,16.39,27.29,17.35,102644,1.916,1.527,-0.122,-0.027,-0.071,0.985,34.04,-943.00,1188.00,92.00,3081.0000
72534,16.39,27.26,17.35,102644,1.718,1.710,-0.206,-0.027,-0.070,0.992,34.18,-931.00,1193.00,107.00,3071.0000
72608,16.38,27.23,17.38,102644,1.969,1.725,-0.321,-0.022,-0.070,0.988,33.99,-928.00,1191.00,92.00,3082.0000
72687,16.38,27.20,17.38,102644,1.809,1.824,-0.282,-0.026,-0.073,1.000,34.13,-943.00,1191.00,90.00,3081.0000
72761,16.37,27.18,17.39,102642,1.901,1.435,-0.176,-0.028,-0.068,0.989,33.94,-948.00,1168.00,100.00,3083.0000
72835,16.38,27.15,17.39,102642,2.130,1.763,-0.405,-0.026,-0.064,0.995,34.13,-928.00,1183.00,97.00,3071.0000
72909,16.36,27.16,17.40,102641,2.015,1.458,0.061,-0.032,-0.065,0.995,33.85,-938.00,1193.00,102.00,3079.0000
72983,16.38,27.13,17.40,102641,1.916,1.649,-0.374,-0.032,-0.068,0.993,33.94,-936.00,1201.00,97.00,3082.0000
73062,16.37,27.12,17.40,102645,1.733,1.779,-0.336,-0.028,-0.068,0.996,34.13,-955.00,1191.00,90.00,3083.0000
73136,16.37,27.09,17.40,102645,1.679,1.557,-0.275,-0.030,-0.067,0.993,33.94,-946.00,1171.00,97.00,3079.0000
73210,16.36,27.07,17.40,102644,1.687,1.878,-0.221,-0.022,-0.068,0.988,33.99,-946.00,1171.00,110.00,3082.0000
73284,16.38,27.06,17.40,102644,1.847,1.550,-0.115,-0.030,-0.068,0.996,33.71,-951.00,1186.00,92.00,3071.0000
73363,16.36,27.03,17.39,102642,1.969,1.534,-0.061,-0.028,-0.070,0.994,33.80,-933.00,1193.00,92.00,3082.0000
73437,16.36,27.00,17.39,102642,1.489,1.542,-0.405,-0.030,-0.064,0.991,33.94,-948.00,1191.00,105.00,3082.0000
73511,16.34,26.99,17.38,102640,1.672,1.672,-0.634,-0.029,-0.067,0.988,33.99,-948.00,1181.00,100.00,3071.0000
73585,16.36,26.94,17.38,102640,1.992,1.809,-0.252,-0.029,-0.070,0.992,33.80,-943.00,1188.00,95.00,3071.0000
73659,16.36,26.94,17.37,102645,1.634,1.687,-0.237,-0.029,-0.064,0.995,33.85,-948.00,1181.00,110.00,3071.0000
73738,16.35,26.93,17.37,102645,1.695,1.878,-0.405,-0.031,-0.073,0.990,33.80,-952.00,1186.00,100.00,3082.0000
73812,16.34,26.92,17.35,102640,1.794,1.534,0.000,-0.027,-0.066,0.989,33.94,-948.00,1186.00,107.00,3083.0000
73886,16.34,26.92,17.35,102640,1.496,1.557,0.076,-0.029,-0.066,0.990,33.85,-941.00,1198.00,92.00,3082.0000
73960,16.34,26.88,17.34,102643,1.786,1.832,-0.328,-0.023,-0.064,0.992,33.80,-946.00,1183.00,100.00,3083.0000
74034,16.34,26.89,17.34,102643,1.962,1.542,-0.153,-0.028,-0.065,0.989,33.85,-955.00,1176.00,110.00,3082.0000
74113,16.34,26.86,17.33,102640,1.840,1.878,0.038,-0.033,-0.072,0.985,33.85,-943.00,1191.00,115.00,3071.0000
74187,16.35,26.86,17.33,102640,1.916,1.710,-0.214,-0.025,-0.062,0.989,33.99,-952.00,1183.00,90.00,3071.0000
74261,16.33,26.85,17.32,102643,1.863,1.634,0.000,-0.024,-0.072,0.990,33.85,-960.00,1183.00,87.00,3085.0000
74335,16.34,26.83,17.32,102643,1.817,1.580,-0.275,-0.031,-0.064,0.990,33.85,-962.00,1191.00,85.00,3071.0000
74409,16.33,26.82,17.30,102640,1.916,1.466,-0.137,-0.032,-0.068,0.991,33.80,-955.00,1188.00,102.00,3071.0000
74503,16.31,26.84,17.30,102640,1.573,1.511,-0.344,-0.026,-0.071,0.991,33.80,-946.00,1178.00,102.00,3081.0000
74579,16.31,26.78,17.29,102639,1.832,1.733,-0.344,-0.025,-0.064,0.992,33.71,-938.00,1198.00,97.00,3071.0000
74658,16.30,26.74,17.27,102640,1.786,1.641,-0.351,-0.025,-0.064,0.993,33.61,-946.00,1191.00,100.00,3080.0000
74741,16.29,26.76,17.27,102640,1.748,1.802,-0.107,-0.024,-0.072,0.986,33.94,-931.00,1196.00,107.00,3083.0000
74820,16.30,26.68,17.25,102641,2.031,1.382,-0.298,-0.028,-0.066,0.990,33.61,-946.00,1186.00,105.00,3071.0000
74894,16.28,26.65,17.25,102641,1.656,1.626,-0.237,-0.028,-0.070,0.997,33.80,-952.00,1181.00,120.00,3071.0000
74968,16.28,26.65,17.23,102642,1.740,1.420,-0.176,-0.030,-0.066,0.986,33.66,-938.00,1188.00,107.00,3071.0000
75042,16.26,26.63,17.23,102642,1.901,1.595,-0.176,-0.028,-0.066,0.992,33.71,-965.00,1173.00,87.00,3071.0000
75116,16.26,26.60,17.20,102638,1.908,2.038,-0.145,-0.028,-0.070,0.992,33.66,-955.00,1183.00,102.00,3083.0000
75197,16.23,26.56,17.20,102638,1.878,1.595,-0.290,-0.027,-0.063,0.989,33.61,-933.00,1178.00,105.00,3079.0000
75271,16.21,26.53,17.17,102646,1.916,1.763,-0.214,-0.027,-0.069,0.992,33.71,-952.00,1196.00,97.00,3082.0000
75345,16.21,26.50,17.17,102646,1.893,1.634,-0.298,-0.029,-0.069,0.991,33.71,-943.00,1198.00,102.00,3082.0000
75419,16.20,26.47,17.15,102641,1.664,1.733,-0.183,-0.028,-0.069,0.990,33.80,-941.00,1201.00,97.00,3071.0000
75493,16.18,26.46,17.15,102641,1.725,1.511,-0.405,-0.025,-0.067,0.989,33.61,-952.00,1181.00,117.00,3071.0000
75572,16.17,26.43,17.13,102643,1.809,1.305,-0.298,-0.030,-0.072,0.994,33.47,-951.00,1186.00,107.00,3082.0000
75646,16.15,26.40,17.13,102643,1.863,1.565,-0.420,-0.029,-0.068,0.989,33.47,-943.00,1178.00,102.00,3079.0000
75720,16.15,26.36,17.11,102646,1.817,1.725,-0.115,-0.026,-0.063,0.989,33.71,-948.00,1198.00,105.00,3081.0000
75794,16.13,26.33,17.11,102646,1.763,1.794,-0.153,-0.028,-0.068,0.991,33.71,-948.00,1186.00,95.00,3071.0000
75873,16.10,26.33,17.09,102647,1.786,1.573,-0.237,-0.027,-0.071,0.993,33.47,-946.00,1191.00,97.00,3082.0000
75947,16.09,26.30,17.09,102647,2.008,1.527,-0.252,-0.029,-0.070,0.991,33.52,-933.00,1198.00,95.00,3071.0000
76021,16.09,26.26,17.08,102646,1.748,1.557,-0.107,-0.030,-0.070,0.995,33.52,-933.00,1191.00,100.00,3071.0000
76095,16.07,26.27,17.08,102646,1.656,1.641,-0.160,-0.029,-0.067,0.991,33.66,-965.00,1181.00,97.00,3083.0000
76169,16.07,26.24,17.07,102649,1.863,1.718,-0.290,-0.031,-0.070,0.989,33.42,-938.00,1188.00,95.00,3082.0000
76248,16.06,26.23,17.07,102649,2.084,1.908,-0.237,-0.026,-0.065,0.983,33.42,-946.00,1178.00,102.00,3071.0000
76322,16.05,26.19,17.04,102646,1.893,1.634,0.061,-0.028,-0.073,0.987,33.52,-960.00,1193.00,107.00,3083.0000
76396,16.04,26.16,17.04,102646,1.740,1.763,-0.122,-0.029,-0.070,0.995,33.47,-938.00,1191.00,95.00,3071.0000
76470,16.01,26.12,16.98,102643,1.916,1.702,0.000,-0.025,-0.073,0.992,33.47,-952.00,1181.00,97.00,3081.0000
76544,16.01,26.09,16.98,102643,1.901,1.679,-0.198,-0.027,-0.070,0.995,33.42,-951.00,1188.00,92.00,3071.0000
76623,15.98,26.07,16.93,102645,1.794,1.634,-0.282,-0.026,-0.070,0.990,33.47,-946.00,1188.00,97.00,3071.0000
76697,15.96,26.03,16.93,102645,1.885,1.557,-0.305,-0.029,-0.066,0.988,33.42,-948.00,1196.00,97.00,3081.0000
76771,15.96,26.01,16.90,102645,1.718,1.718,-0.382,-0.027,-0.068,0.993,33.28,-943.00,1188.00,102.00,3071.0000
76845,15.94,26.00,16.90,102645,1.901,1.733,-0.336,-0.026,-0.068,0.989,33.66,-948.00,1183.00,90.00,3071.0000
76919,15.93,26.00,16.90,102643,1.809,1.931,-0.275,-0.032,-0.069,0.991,33.61,-951.00,1191.00,102.00,3083.0000
76998,15.93,25.99,16.90,102643,1.695,1.779,-0.328,-0.032,-0.071,0.994,33.47,-952.00,1186.00,100.00,3071.0000
77072,15.92,25.97,16.91,102643,2.206,1.687,-0.229,-0.023,-0.068,0.993,33.28,-952.00,1191.00,110.00,3083.0000
77146,15.91,25.97,16.91,102643,1.748,1.511,-0.168,-0.024,-0.069,0.988,33.42,-943.00,1183.00,102.00,3071.0000
77220,15.91,25.95,16.91,102642,1.710,1.489,-0.244,-0.025,-0.074,0.988,33.33,-948.00,1196.00,102.00,3071.0000
77314,15.88,25.97,16.90,102642,1.740,1.649,-0.366,-0.028,-0.067,0.994,33.47,-967.00,1178.00,112.00,3071.0000
77390,15.88,25.92,16.90,102642,1.756,1.634,-0.115,-0.030,-0.069,0.988,33.33,-955.00,1198.00,102.00,3071.0000
77464,15.87,25.90,16.90,102643,1.901,1.611,-0.244,-0.031,-0.068,0.992,33.33,-962.00,1183.00,92.00,3071.0000
77538,15.88,25.87,16.90,102643,2.046,1.710,-0.160,-0.027,-0.068,0.989,33.33,-938.00,1186.00,117.00,3082.0000
77612,15.86,25.86,16.89,102643,1.740,1.542,-0.145,-0.029,-0.069,0.989,33.14,-951.00,1181.00,97.00,3071.0000
77691,15.85,25.85,16.89,102643,1.786,1.733,-0.061,-0.030,-0.067,0.989,33.14,-948.00,1178.00,105.00,3071.0000
77765,15.85,25.81,16.89,102643,1.863,1.832,-0.160,-0.026,-0.067,0.988,33.47,-946.00,1181.00,102.00,3071.0000
77839,15.84,25.83,16.89,102643,1.748,1.481,-0.458,-0.029,-0.071,0.988,33.28,-955.00,1202.00,105.00,3071.0000
77913,15.85,25.81,16.89,102646,1.824,1.809,-0.374,-0.024,-0.068,0.987,33.28,-941.00,1173.00,102.00,3083.0000
77987,15.85,25.77,16.89,102646,1.794,1.641,-0.046,-0.030,-0.068,0.997,33.28,-926.00,1198.00,102.00,3082.0000
78066,15.84,25.79,16.87,102642,2.000,1.695,0.122,-0.027,-0.066,0.993,33.42,-948.00,1186.00,105.00,3071.0000
78140,15.83,25.74,16.87,102642,1.931,1.595,-0.206,-0.026,-0.067,0.993,33.19,-951.00,1196.00,107.00,3071.0000
78214,15.83,25.76,16.86,102645,2.092,1.809,-0.115,-0.026,-0.069,0.991,33.00,-951.00,1193.00,107.00,3079.0000
78288,15.84,25.70,16.86,102645,1.740,1.664,-0.519,-0.025,-0.068,0.995,33.14,-941.00,1183.00,97.00,3079.0000
78367,15.81,25.69,16.84,102643,1.863,1.382,-0.244,-0.027,-0.066,0.990,33.14,-948.00,1198.00,85.00,3082.0000
78441,15.82,25.66,16.84,102643,1.779,1.756,-0.053,-0.029,-0.072,0.994,33.19,-955.00,1207.00,100.00,3071.0000
78515,15.82,25.63,16.82,102643,2.053,1.687,-0.168,-0.028,-0.069,0.989,33.14,-952.00,1183.00,105.00,3079.0000
78589,15.82,25.63,16.82,102643,1.702,1.473,-0.267,-0.027,-0.067,0.989,33.00,-955.00,1191.00,102.00,3071.0000
78663,15.82,25.58,16.78,102640,1.870,1.718,-0.336,-0.027,-0.070,0.996,33.14,-938.00,1188.00,102.00,3082.0000
78742,15.79,25.60,16.78,102640,1.794,1.542,-0.321,-0.025,-0.065,0.995,33.00,-948.00,1188.00,100.00,3081.0000
78816,15.78,25.57,16.76,102642,1.786,1.733,-0.160,-0.034,-0.067,0.987,33.19,-960.00,1186.00,110.00,3083.0000
78911,15.76,25.60,16.76,102642,1.649,1.733,-0.198,-0.024,-0.067,0.992,33.19,-946.00,1181.00,107.00,3071.0000
78994,15.73,25.53,16.72,102638,1.817,1.618,-0.473,-0.027,-0.072,0.990,33.14,-948.00,1186.00,105.00,3071.0000
79068,15.73,25.48,16.72,102638,1.969,1.626,-0.099,-0.030,-0.065,0.995,33.14,-951.00,1191.00,95.00,3081.0000
79147,15.72,25.45,16.70,102641,2.000,1.595,-0.176,-0.030,-0.068,0.991,33.00,-946.00,1186.00,102.00,3071.0000
79221,15.71,25.43,16.70,102641,1.710,1.687,-0.191,-0.021,-0.068,0.995,33.14,-951.00,1193.00,105.00,3071.0000
79295,15.70,25.41,16.68,102642,1.710,1.824,-0.328,-0.027,-0.070,0.989,33.19,-951.00,1178.00,90.00,3071.0000
79369,15.68,25.38,16.68,102642,1.389,1.573,-0.344,-0.031,-0.067,0.993,33.09,-946.00,1186.00,95.00,3071.0000
79443,15.67,25.35,16.66,102641,1.748,1.641,-0.305,-0.030,-0.071,0.991,33.09,-960.00,1191.00,105.00,3071.0000
79524,15.64,25.35,16.62,102641,1.748,1.473,-0.145,-0.032,-0.066,0.988,33.19,-952.00,1198.00,100.00,3082.0000
79598,15.63,25.30,16.62,102641,1.885,1.802,-0.435,-0.028,-0.065,0.990,33.14,-936.00,1188.00,95.00,3081.0000
79672,15.60,25.29,16.58,102640,1.763,1.634,-0.053,-0.027,-0.069,0.984,33.28,-946.00,1188.00,100.00,3083.0000
79746,15.60,25.25,16.58,102640,1.779,1.924,0.221,-0.028,-0.062,0.991,33.00,-951.00,1183.00,92.00,3071.0000
79825,15.59,25.24,16.55,102641,2.000,1.687,0.145,-0.024,-0.068,0.991,33.19,-948.00,1191.00,102.00,3081.0000
79899,15.57,25.22,16.55,102641,1.977,1.641,-0.107,-0.031,-0.067,0.987,33.09,-955.00,1191.00,102.00,3082.0000
79973,15.56,25.19,16.54,102639,1.725,1.710,-0.076,-0.028,-0.068,0.992,32.95,-943.00,1193.00,110.00,3071.0000
80047,15.54,25.17,16.54,102639,1.748,1.397,-0.130,-0.028,-0.065,0.991,32.95,-965.00,1188.00,100.00,3071.0000
80121,15.54,25.14,16.52,102642,1.824,1.840,-0.244,-0.031,-0.068,0.994,32.91,-962.00,1183.00,105.00,3071.0000
80215,15.51,25.15,16.52,102642,2.046,1.573,-0.298,-0.025,-0.066,0.991,33.09,-948.00,1196.00,115.00,3081.0000
80302,15.48,25.12,16.50,102641,1.931,1.489,-0.183,-0.029,-0.067,0.997,32.91,-960.00,1183.00,105.00,3071.0000
80376,15.46,25.08,16.50,102641,2.023,1.550,-0.084,-0.029,-0.072,0.993,32.91,-952.00,1196.00,120.00,3079.0000
80450,15.46,25.03,16.45,102642,1.672,1.603,-0.427,-0.027,-0.068,0.992,33.09,-941.00,1201.00,110.00,3071.0000
80524,15.45,25.02,16.45,102642,1.962,1.290,-0.405,-0.025,-0.064,0.990,32.91,-952.00,1186.00,97.00,3071.0000
80603,15.42,24.99,16.42,102641,1.832,1.641,-0.489,-0.028,-0.069,0.989,32.77,-951.00,1196.00,95.00,3081.0000
80677,15.40,24.96,16.42,102641,1.916,1.611,-0.336,-0.025,-0.070,0.989,32.62,-952.00,1188.00,105.00,3071.0000
80751,15.39,24.93,16.40,102637,1.863,1.924,-0.145,-0.034,-0.071,0.987,32.91,-943.00,1183.00,100.00,3071.0000
80825,15.38,24.92,16.40,102637,1.916,1.626,-0.313,-0.025,-0.070,0.987,32.77,-933.00,1198.00,97.00,3082.0000
80904,15.36,24.95,16.38,102639,1.809,1.626,-0.328,-0.027,-0.065,0.988,32.91,-952.00,1188.00,102.00,3071.0000
80978,15.34,24.89,16.38,102639,1.832,1.511,-0.168,-0.026,-0.069,0.994,32.91,-955.00,1201.00,107.00,3071.0000
81052,15.32,24.88,16.36,102638,1.931,1.748,-0.374,-0.027,-0.064,0.996,33.09,-955.00,1181.00,95.00,3071.0000
81126,15.31,24.86,16.36,102638,1.878,1.832,-0.328,-0.027,-0.066,0.994,32.67,-948.00,1191.00,105.00,3071.0000
81200,15.30,24.86,16.34,102641,1.847,1.832,-0.313,-0.027,-0.068,0.992,32.95,-943.00,1186.00,97.00,3071.0000
81279,15.28,24.84,16.34,102641,1.840,1.641,-0.351,-0.024,-0.068,0.994,32.62,-948.00,1188.00,95.00,3071.0000
81353,15.27,24.78,16.31,102639,2.069,1.588,-0.359,-0.028,-0.071,0.990,32.91,-952.00,1173.00,105.00,3071.0000
81427,15.26,24.75,16.31,102639,1.992,1.702,-0.099,-0.028,-0.068,0.994,32.77,-952.00,1193.00,95.00,3071.0000
81501,15.24,24.75,16.29,102641,1.763,1.763,-0.450,-0.028,-0.070,0.990,32.58,-938.00,1191.00,82.00,3082.0000
81575,15.23,24.75,16.29,102641,1.924,1.687,-0.321,-0.024,-0.064,0.994,32.91,-960.00,1191.00,100.00,3071.0000
81654,15.22,24.73,16.27,102638,1.939,1.595,0.076,-0.027,-0.065,0.987,32.67,-952.00,1193.00,100.00,3080.0000
81728,15.21,24.73,16.27,102638,1.962,1.504,-0.160,-0.027,-0.066,0.984,32.81,-951.00,1183.00,125.00,3071.0000
81802,15.20,24.71,16.28,102638,1.863,1.740,-0.328,-0.025,-0.067,0.988,32.58,-941.00,1198.00,97.00,3071.0000
81876,15.19,24.68,16.28,102638,2.053,1.565,-0.206,-0.026,-0.064,0.987,32.81,-951.00,1183.00,102.00,3071.0000
81950,15.19,24.69,16.27,102641,1.656,1.641,-0.252,-0.028,-0.066,0.995,32.62,-955.00,1188.00,92.00,3081.0000
82029,15.19,24.69,16.27,102642,1.656,1.634,-0.351,-0.028,-0.071,0.992,32.62,-946.00,1188.00,102.00,3071.0000
82103,15.18,24.68,16.27,102642,1.855,1.748,-0.244,-0.029,-0.068,0.988,32.58,-957.00,1193.00,95.00,3071.0000
82177,15.20,24.67,16.26,102638,1.947,1.649,-0.191,-0.025,-0.071,0.992,32.67,-955.00,1186.00,105.00,3071.0000
82251,15.19,24.66,16.26,102638,1.855,1.626,-0.053,-0.030,-0.067,0.988,32.62,-948.00,1188.00,77.00,3071.0000
82330,15.19,24.69,16.26,102641,2.061,1.756,-0.237,-0.027,-0.068,0.990,32.62,-946.00,1198.00,95.00,3071.0000
82404,15.18,24.65,16.26,102641,2.015,1.580,-0.405,-0.029,-0.069,0.988,32.67,-946.00,1186.00,97.00,3081.0000
82478,15.19,24.65,16.25,102639,1.733,1.702,-0.183,-0.024,-0.067,0.987,32.44,-960.00,1191.00,112.00,3071.0000
82552,15.19,24.63,16.25,102639,1.916,1.466,-0.183,-0.026,-0.069,0.993,32.77,-946.00,1191.00,90.00,3080.0000
82626,15.19,24.61,16.25,102639,1.962,1.420,-0.298,-0.027,-0.066,0.988,32.62,-957.00,1183.00,97.00,3071.0000
82705,15.18,24.63,16.25,102639,1.733,1.557,-0.176,-0.027,-0.067,0.990,32.62,-960.00,1188.00,87.00,3079.0000
82779,15.18,24.62,16.23,102639,1.939,1.656,-0.229,-0.028,-0.067,0.990,32.91,-952.00,1183.00,100.00,3071.0000
82853,15.18,24.62,16.23,102639,1.893,1.695,-0.328,-0.027,-0.071,0.993,32.58,-946.00,1198.00,112.00,3071.0000
82927,15.17,24.58,16.21,102639,1.847,1.481,-0.527,-0.029,-0.067,0.983,32.44,-955.00,1188.00,95.00,3071.0000
83001,15.18,24.57,16.21,102639,1.908,1.847,-0.290,-0.031,-0.066,0.994,32.62,-948.00,1193.00,97.00,3081.0000
83097,15.13,24.59,16.19,102641,1.885,1.519,-0.351,-0.024,-0.067,0.990,32.44,-946.00,1193.00,110.00,3071.0000
83173,15.15,24.54,16.19,102641,1.893,1.641,-0.298,-0.027,-0.068,0.987,32.77,-946.00,1181.00,110.00,3071.0000
83247,15.16,24.53,16.16,102640,1.855,1.695,-0.336,-0.026,-0.067,0.993,32.44,-946.00,1191.00,105.00,3071.0000
83321,15.14,24.54,16.16,102640,2.069,1.450,-0.061,-0.029,-0.065,0.988,32.29,-946.00,1196.00,105.00,3071.0000
83400,15.12,24.54,16.15,102638,1.740,1.458,-0.206,-0.029,-0.071,0.989,32.62,-946.00,1198.00,92.00,3071.0000
83474,15.11,24.50,16.15,102638,2.046,1.473,-0.374,-0.024,-0.073,0.985,32.62,-955.00,1191.00,107.00,3071.0000
83548,15.12,24.49,16.13,102635,1.794,1.504,-0.298,-0.027,-0.072,0.990,32.44,-957.00,1191.00,97.00,3082.0000
83622,15.10,24.48,16.13,102635,1.878,1.550,-0.511,-0.027,-0.068,0.988,32.62,-955.00,1181.00,102.00,3071.0000
83698,15.09,24.44,16.11,102638,2.015,1.664,-0.321,-0.026,-0.065,0.992,32.58,-952.00,1188.00,107.00,3071.0000
83777,15.06,24.46,16.11,102638,1.733,1.634,-0.336,-0.030,-0.067,0.990,32.62,-955.00,1183.00,107.00,3071.0000
83851,15.06,24.43,16.08,102640,1.824,1.824,-0.305,-0.025,-0.069,0.986,32.29,-951.00,1191.00,100.00,3071.0000
83925,15.04,24.38,16.08,102640,1.748,1.466,-0.344,-0.026,-0.071,0.991,32.29,-948.00,1201.00,95.00,3071.0000
83999,15.03,24.39,16.05,102638,1.595,1.802,-0.290,-0.025,-0.071,0.988,32.29,-952.00,1188.00,100.00,3082.0000
84073,15.02,24.36,16.05,102638,1.947,1.832,0.008,-0.027,-0.065,0.992,32.25,-955.00,1191.00,100.00,3079.0000
84152,14.98,24.31,16.02,102638,1.794,1.687,-0.229,-0.030,-0.070,0.985,32.06,-943.00,1198.00,90.00,3081.0000
84226,14.97,24.33,16.02,102638,1.985,1.763,-0.206,-0.025,-0.066,0.985,32.25,-957.00,1196.00,97.00,3081.0000
84300,14.96,24.28,15.99,102641,1.977,1.573,-0.336,-0.028,-0.071,0.986,32.48,-951.00,1188.00,105.00,3071.0000
84374,14.94,24.28,15.99,102641,1.565,1.725,-0.031,-0.028,-0.067,0.990,32.39,-941.00,1196.00,100.00,3071.0000
84448,14.92,24.24,15.95,102637,1.802,1.313,-0.107,-0.029,-0.071,0.986,32.25,-936.00,1193.00,102.00,3071.0000
84527,14.91,24.23,15.95,102637,1.985,1.634,-0.137,-0.026,-0.069,0.990,32.29,-948.00,1188.00,100.00,3071.0000
84601,14.89,24.23,15.92,102639,1.595,1.824,-0.107,-0.023,-0.071,0.986,32.39,-948.00,1188.00,107.00,3071.0000
84675,14.86,24.21,15.92,102639,1.824,1.313,-0.023,-0.029,-0.070,0.984,32.39,-955.00,1205.00,125.00,3080.0000
84749,14.86,24.18,15.91,102637,1.710,1.511,-0.321,-0.023,-0.069,0.990,32.39,-938.00,1181.00,105.00,3071.0000
84828,14.84,24.18,15.91,102642,1.878,1.611,-0.107,-0.022,-0.069,0.982,32.25,-948.00,1193.00,107.00,3082.0000
84902,14.82,24.17,15.90,102640,1.985,1.603,-0.183,-0.028,-0.068,0.995,32.11,-955.00,1188.00,107.00,3071.0000
84976,14.83,24.13,15.90,102637,1.969,1.573,-0.282,-0.025,-0.070,0.989,32.39,-952.00,1178.00,105.00,3071.0000
85050,14.81,24.15,15.89,102637,1.863,1.672,-0.382,-0.032,-0.063,0.992,32.39,-957.00,1196.00,85.00,3071.0000
85124,14.78,24.11,15.88,102638,1.924,1.710,-0.229,-0.028,-0.065,0.989,32.44,-951.00,1193.00,97.00,3081.0000
85203,14.79,24.09,15.88,102638,1.901,1.618,-0.206,-0.027,-0.071,0.987,32.29,-951.00,1191.00,102.00,3081.0000
85277,14.77,24.08,15.85,102642,1.763,1.534,-0.099,-0.026,-0.066,0.987,32.25,-960.00,1186.00,92.00,3071.0000
85351,14.76,24.05,15.85,102642,1.893,1.641,-0.275,-0.029,-0.068,0.987,32.25,-941.00,1193.00,95.00,3071.0000
85425,14.74,24.03,15.80,102640,1.748,1.779,-0.038,-0.029,-0.068,0.990,32.06,-938.00,1202.00,102.00,3071.0000
85499,14.74,24.03,15.80,102640,1.718,1.595,-0.275,-0.021,-0.066,0.992,32.29,-948.00,1191.00,110.00,3071.0000
85578,14.69,24.00,15.73,102641,1.916,1.626,-0.321,-0.027,-0.068,0.991,32.25,-936.00,1186.00,90.00,3071.0000
85652,14.67,23.97,15.73,102641,1.718,1.779,-0.298,-0.031,-0.070,0.981,32.15,-955.00,1188.00,100.00,3071.0000
85726,14.67,23.95,15.66,102643,1.641,1.710,-0.389,-0.027,-0.066,0.988,32.06,-952.00,1202.00,107.00,3071.0000
85800,14.65,23.92,15.66,102643,2.023,1.718,-0.191,-0.028,-0.072,0.984,32.11,-952.00,1191.00,105.00,3071.0000
85894,14.62,23.93,15.61,102642,1.763,1.901,-0.412,-0.023,-0.066,0.992,31.97,-951.00,1186.00,95.00,3071.0000
85970,14.60,23.88,15.61,102642,1.870,1.542,-0.061,-0.027,-0.067,0.988,31.87,-951.00,1191.00,100.00,3071.0000
86044,14.59,23.88,15.55,102640,2.046,1.580,-0.214,-0.031,-0.070,0.986,32.06,-955.00,1191.00,100.00,3082.0000
86118,14.57,23.83,15.55,102640,1.863,1.756,0.031,-0.022,-0.063,0.983,32.44,-957.00,1205.00,97.00,3071.0000
86192,14.56,23.81,15.52,102640,1.847,1.718,-0.275,-0.030,-0.064,0.994,32.25,-941.00,1205.00,92.00,3071.0000
86271,14.54,23.81,15.52,102640,1.969,1.519,-0.420,-0.026,-0.069,0.991,32.15,-951.00,1191.00,100.00,3071.0000
86345,14.52,23.77,15.49,102640,2.061,1.550,-0.344,-0.031,-0.072,0.987,32.06,-967.00,1191.00,97.00,3071.0000
86419,14.50,23.75,15.49,102640,1.626,1.672,-0.275,-0.030,-0.067,0.992,32.25,-948.00,1196.00,125.00,3071.0000
86493,14.48,23.73,15.45,102641,2.107,1.420,-0.191,-0.023,-0.070,0.992,31.97,-957.00,1198.00,110.00,3071.0000
86567,14.46,23.71,15.45,102641,1.809,1.679,-0.198,-0.028,-0.068,0.983,32.11,-951.00,1201.00,95.00,3080.0000
86646,14.43,23.69,15.44,102640,1.870,1.855,-0.176,-0.027,-0.067,0.991,31.92,-965.00,1205.00,120.00,3071.0000
